ID,trial_index,trial_value,is_target,response_value,responded,rt_ms,commission_error,omission_error,correct
2,1,11,False,-1.0,False,,False,True,False
2,2,13,False,469.0,True,469.0,False,False,True
2,3,7,False,343.0,True,343.0,False,False,True
2,4,15,False,275.0,True,275.0,False,False,True
2,5,0,True,295.0,True,295.0,True,False,False
2,6,12,False,266.0,True,266.0,False,False,True
2,7,2,False,246.0,True,246.0,False,False,True
2,8,1,False,279.0,True,279.0,False,False,True
2,9,9,False,337.0,True,337.0,False,False,True
2,10,5,False,328.0,True,328.0,False,False,True
2,11,12,False,437.0,True,437.0,False,False,True
2,12,2,False,378.0,True,378.0,False,False,True
2,13,12,False,352.0,True,352.0,False,False,True
2,14,6,False,322.0,True,322.0,False,False,True
2,15,8,False,353.0,True,353.0,False,False,True
2,16,0,True,-1.0,False,,False,False,True
2,17,8,False,256.0,True,256.0,False,False,True
2,18,5,False,306.0,True,306.0,False,False,True
2,19,13,False,318.0,True,318.0,False,False,True
2,20,2,False,329.0,True,329.0,False,False,True
2,21,10,False,310.0,True,310.0,False,False,True
2,22,10,False,342.0,True,342.0,False,False,True
2,23,14,False,285.0,True,285.0,False,False,True
2,24,5,False,435.0,True,435.0,False,False,True
2,25,11,False,478.0,True,478.0,False,False,True
2,26,5,False,291.0,True,291.0,False,False,True
2,27,0,True,322.0,True,322.0,True,False,False
2,28,11,False,385.0,True,385.0,False,False,True
2,29,13,False,358.0,True,358.0,False,False,True
2,30,8,False,291.0,True,291.0,False,False,True
2,31,6,False,324.0,True,324.0,False,False,True
2,32,2,False,295.0,True,295.0,False,False,True
2,33,15,False,307.0,True,307.0,False,False,True
2,34,3,False,299.0,True,299.0,False,False,True
2,35,7,False,392.0,True,392.0,False,False,True
2,36,12,False,315.0,True,315.0,False,False,True
2,37,2,False,307.0,True,307.0,False,False,True
2,38,0,True,-1.0,False,,False,False,True
2,39,6,False,330.0,True,330.0,False,False,True
2,40,3,False,282.0,True,282.0,False,False,True
2,41,3,False,274.0,True,274.0,False,False,True
2,42,5,False,505.0,True,505.0,False,False,True
2,43,7,False,349.0,True,349.0,False,False,True
2,44,0,True,332.0,True,332.0,True,False,False
2,45,4,False,374.0,True,374.0,False,False,True
2,46,4,False,327.0,True,327.0,False,False,True
2,47,2,False,420.0,True,420.0,False,False,True
2,48,9,False,382.0,True,382.0,False,False,True
2,49,7,False,365.0,True,365.0,False,False,True
2,50,5,False,417.0,True,417.0,False,False,True
2,51,8,False,441.0,True,441.0,False,False,True
2,52,12,False,314.0,True,314.0,False,False,True
2,53,14,False,346.0,True,346.0,False,False,True
2,54,6,False,371.0,True,371.0,False,False,True
2,55,0,True,351.0,True,351.0,True,False,False
2,56,11,False,374.0,True,374.0,False,False,True
2,57,2,False,331.0,True,331.0,False,False,True
2,58,7,False,528.0,True,528.0,False,False,True
2,59,13,False,389.0,True,389.0,False,False,True
2,60,10,False,334.0,True,334.0,False,False,True
2,61,12,False,328.0,True,328.0,False,False,True
2,62,5,False,418.0,True,418.0,False,False,True
2,63,1,False,262.0,True,262.0,False,False,True
2,64,0,True,-1.0,False,,False,False,True
2,65,4,False,303.0,True,303.0,False,False,True
2,66,0,True,386.0,True,386.0,True,False,False
2,67,5,False,378.0,True,378.0,False,False,True
2,68,3,False,291.0,True,291.0,False,False,True
2,69,5,False,391.0,True,391.0,False,False,True
2,70,10,False,433.0,True,433.0,False,False,True
2,71,2,False,386.0,True,386.0,False,False,True
2,72,9,False,398.0,True,398.0,False,False,True
2,73,5,False,341.0,True,341.0,False,False,True
2,74,15,False,393.0,True,393.0,False,False,True
2,75,12,False,396.0,True,396.0,False,False,True
2,76,12,False,332.0,True,332.0,False,False,True
2,77,13,False,325.0,True,325.0,False,False,True
2,78,4,False,405.0,True,405.0,False,False,True
2,79,10,False,301.0,True,301.0,False,False,True
2,80,10,False,272.0,True,272.0,False,False,True
2,81,3,False,251.0,True,251.0,False,False,True
2,82,0,True,313.0,True,313.0,True,False,False
2,83,3,False,464.0,True,464.0,False,False,True
2,84,12,False,380.0,True,380.0,False,False,True
2,85,9,False,422.0,True,422.0,False,False,True
2,86,1,False,446.0,True,446.0,False,False,True
2,87,10,False,290.0,True,290.0,False,False,True
2,88,1,False,283.0,True,283.0,False,False,True
2,89,15,False,297.0,True,297.0,False,False,True
2,90,1,False,488.0,True,488.0,False,False,True
2,91,2,False,473.0,True,473.0,False,False,True
2,92,3,False,457.0,True,457.0,False,False,True
2,93,0,True,354.0,True,354.0,True,False,False
2,94,7,False,458.0,True,458.0,False,False,True
2,95,12,False,592.0,True,592.0,False,False,True
2,96,13,False,438.0,True,438.0,False,False,True
2,97,12,False,384.0,True,384.0,False,False,True
2,98,10,False,451.0,True,451.0,False,False,True
2,99,1,False,404.0,True,404.0,False,False,True
2,100,10,False,356.0,True,356.0,False,False,True
2,101,4,False,320.0,True,320.0,False,False,True
2,102,6,False,448.0,True,448.0,False,False,True
2,103,11,False,281.0,True,281.0,False,False,True
2,104,10,False,222.0,True,222.0,False,False,True
2,105,6,False,273.0,True,273.0,False,False,True
2,106,10,False,264.0,True,264.0,False,False,True
2,107,14,False,254.0,True,254.0,False,False,True
2,108,2,False,285.0,True,285.0,False,False,True
2,109,12,False,286.0,True,286.0,False,False,True
2,110,8,False,326.0,True,326.0,False,False,True
2,111,13,False,288.0,True,288.0,False,False,True
2,112,13,False,300.0,True,300.0,False,False,True
2,113,2,False,309.0,True,309.0,False,False,True
2,114,6,False,398.0,True,398.0,False,False,True
2,115,15,False,491.0,True,491.0,False,False,True
2,116,0,True,898.0,True,898.0,True,False,False
2,117,0,True,-1.0,False,,False,False,True
2,118,13,False,514.0,True,514.0,False,False,True
2,119,3,False,435.0,True,435.0,False,False,True
2,120,12,False,377.0,True,377.0,False,False,True
2,121,15,False,270.0,True,270.0,False,False,True
2,122,6,False,-1.0,False,,False,True,False
2,123,11,False,425.0,True,425.0,False,False,True
2,124,12,False,370.0,True,370.0,False,False,True
2,125,6,False,358.0,True,358.0,False,False,True
2,126,14,False,341.0,True,341.0,False,False,True
2,127,11,False,555.0,True,555.0,False,False,True
2,128,15,False,729.0,True,729.0,False,False,True
2,129,0,True,316.0,True,316.0,True,False,False
2,130,5,False,360.0,True,360.0,False,False,True
2,131,14,False,305.0,True,305.0,False,False,True
2,132,0,True,-1.0,False,,False,False,True
2,133,10,False,402.0,True,402.0,False,False,True
2,134,13,False,383.0,True,383.0,False,False,True
2,135,5,False,367.0,True,367.0,False,False,True
2,136,13,False,351.0,True,351.0,False,False,True
2,137,14,False,337.0,True,337.0,False,False,True
2,138,8,False,349.0,True,349.0,False,False,True
2,139,15,False,383.0,True,383.0,False,False,True
2,140,10,False,337.0,True,337.0,False,False,True
2,141,14,False,451.0,True,451.0,False,False,True
2,142,10,False,402.0,True,402.0,False,False,True
2,143,8,False,394.0,True,394.0,False,False,True
2,144,4,False,337.0,True,337.0,False,False,True
2,145,9,False,338.0,True,338.0,False,False,True
2,146,13,False,320.0,True,320.0,False,False,True
2,147,10,False,739.0,True,739.0,False,False,True
2,148,8,False,317.0,True,317.0,False,False,True
2,149,4,False,378.0,True,378.0,False,False,True
2,150,4,False,299.0,True,299.0,False,False,True
2,151,11,False,371.0,True,371.0,False,False,True
2,152,4,False,353.0,True,353.0,False,False,True
2,153,6,False,374.0,True,374.0,False,False,True
2,154,0,True,-1.0,False,,False,False,True
2,155,12,False,377.0,True,377.0,False,False,True
2,156,6,False,320.0,True,320.0,False,False,True
2,157,0,True,281.0,True,281.0,True,False,False
2,158,3,False,283.0,True,283.0,False,False,True
2,159,11,False,326.0,True,326.0,False,False,True
2,160,8,False,277.0,True,277.0,False,False,True
2,161,14,False,269.0,True,269.0,False,False,True
2,162,0,True,467.0,True,467.0,True,False,False
2,163,10,False,340.0,True,340.0,False,False,True
2,164,12,False,281.0,True,281.0,False,False,True
2,165,8,False,262.0,True,262.0,False,False,True
2,166,5,False,273.0,True,273.0,False,False,True
2,167,5,False,332.0,True,332.0,False,False,True
2,168,15,False,275.0,True,275.0,False,False,True
2,169,4,False,335.0,True,335.0,False,False,True
2,170,2,False,355.0,True,355.0,False,False,True
2,171,6,False,277.0,True,277.0,False,False,True
2,172,13,False,259.0,True,259.0,False,False,True
2,173,9,False,310.0,True,310.0,False,False,True
2,174,6,False,401.0,True,401.0,False,False,True
2,175,14,False,423.0,True,423.0,False,False,True
2,176,9,False,425.0,True,425.0,False,False,True
2,177,0,True,364.0,True,364.0,True,False,False
2,178,1,False,390.0,True,390.0,False,False,True
2,179,9,False,302.0,True,302.0,False,False,True
2,180,4,False,323.0,True,323.0,False,False,True
2,181,13,False,266.0,True,266.0,False,False,True
2,182,3,False,295.0,True,295.0,False,False,True
2,183,4,False,279.0,True,279.0,False,False,True
2,184,0,True,343.0,True,343.0,True,False,False
2,185,14,False,-1.0,False,,False,True,False
2,186,5,False,305.0,True,305.0,False,False,True
2,187,3,False,347.0,True,347.0,False,False,True
2,188,1,False,250.0,True,250.0,False,False,True
2,189,5,False,292.0,True,292.0,False,False,True
2,190,5,False,283.0,True,283.0,False,False,True
2,191,0,True,285.0,True,285.0,True,False,False
2,192,5,False,355.0,True,355.0,False,False,True
2,193,10,False,-1.0,False,,False,True,False
2,194,7,False,277.0,True,277.0,False,False,True
2,195,10,False,259.0,True,259.0,False,False,True
2,196,11,False,230.0,True,230.0,False,False,True
2,197,5,False,325.0,True,325.0,False,False,True
2,198,6,False,369.0,True,369.0,False,False,True
2,199,11,False,331.0,True,331.0,False,False,True
2,200,5,False,284.0,True,284.0,False,False,True
2,201,11,False,333.0,True,333.0,False,False,True
2,202,8,False,426.0,True,426.0,False,False,True
2,203,15,False,359.0,True,359.0,False,False,True
2,204,10,False,441.0,True,441.0,False,False,True
2,205,5,False,404.0,True,404.0,False,False,True
2,206,14,False,497.0,True,497.0,False,False,True
2,207,8,False,390.0,True,390.0,False,False,True
2,208,13,False,393.0,True,393.0,False,False,True
2,209,0,True,307.0,True,307.0,True,False,False
2,210,11,False,399.0,True,399.0,False,False,True
2,211,14,False,491.0,True,491.0,False,False,True
2,212,2,False,525.0,True,525.0,False,False,True
2,213,13,False,300.0,True,300.0,False,False,True
2,214,9,False,373.0,True,373.0,False,False,True
2,215,0,True,306.0,True,306.0,True,False,False
2,216,11,False,289.0,True,289.0,False,False,True
2,217,12,False,332.0,True,332.0,False,False,True
2,218,4,False,305.0,True,305.0,False,False,True
2,219,9,False,408.0,True,408.0,False,False,True
2,220,5,False,450.0,True,450.0,False,False,True
2,221,15,False,334.0,True,334.0,False,False,True
2,222,13,False,513.0,True,513.0,False,False,True
2,223,13,False,298.0,True,298.0,False,False,True
2,224,6,False,318.0,True,318.0,False,False,True
2,225,9,False,319.0,True,319.0,False,False,True
2,226,4,False,321.0,True,321.0,False,False,True
2,227,9,False,322.0,True,322.0,False,False,True
2,228,3,False,315.0,True,315.0,False,False,True
2,229,8,False,306.0,True,306.0,False,False,True
2,230,1,False,239.0,True,239.0,False,False,True
2,231,12,False,309.0,True,309.0,False,False,True
2,232,3,False,400.0,True,400.0,False,False,True
2,233,7,False,403.0,True,403.0,False,False,True
2,234,6,False,442.0,True,442.0,False,False,True
2,235,0,True,355.0,True,355.0,True,False,False
2,236,11,False,258.0,True,258.0,False,False,True
2,237,10,False,269.0,True,269.0,False,False,True
2,238,8,False,309.0,True,309.0,False,False,True
2,239,2,False,296.0,True,296.0,False,False,True
2,240,0,True,303.0,True,303.0,True,False,False
2,241,1,False,356.0,True,356.0,False,False,True
2,242,15,False,473.0,True,473.0,False,False,True
2,243,3,False,663.0,True,663.0,False,False,True
2,244,0,True,-1.0,False,,False,False,True
2,245,10,False,370.0,True,370.0,False,False,True
2,246,11,False,340.0,True,340.0,False,False,True
2,247,8,False,600.0,True,600.0,False,False,True
2,248,12,False,621.0,True,621.0,False,False,True
2,249,6,False,742.0,True,742.0,False,False,True
2,250,1,False,1102.0,True,1102.0,False,False,True
2,251,5,False,883.0,True,883.0,False,False,True
2,252,7,False,676.0,True,676.0,False,False,True
2,253,10,False,727.0,True,727.0,False,False,True
2,254,7,False,866.0,True,866.0,False,False,True
2,255,10,False,749.0,True,749.0,False,False,True
2,256,6,False,651.0,True,651.0,False,False,True
2,257,15,False,801.0,True,801.0,False,False,True
2,258,0,True,-1.0,False,,False,False,True
2,259,7,False,349.0,True,349.0,False,False,True
2,260,4,False,469.0,True,469.0,False,False,True
2,261,13,False,639.0,True,639.0,False,False,True
2,262,2,False,976.0,True,976.0,False,False,True
2,263,9,False,691.0,True,691.0,False,False,True
2,264,5,False,334.0,True,334.0,False,False,True
2,265,10,False,256.0,True,256.0,False,False,True
2,266,6,False,306.0,True,306.0,False,False,True
2,267,12,False,366.0,True,366.0,False,False,True
2,268,2,False,326.0,True,326.0,False,False,True
2,269,7,False,357.0,True,357.0,False,False,True
2,270,11,False,319.0,True,319.0,False,False,True
2,271,7,False,289.0,True,289.0,False,False,True
2,272,12,False,300.0,True,300.0,False,False,True
2,273,0,True,280.0,True,280.0,True,False,False
2,274,11,False,528.0,True,528.0,False,False,True
2,275,0,True,371.0,True,371.0,True,False,False
2,276,10,False,441.0,True,441.0,False,False,True
2,277,2,False,295.0,True,295.0,False,False,True
2,278,1,False,275.0,True,275.0,False,False,True
2,279,1,False,247.0,True,247.0,False,False,True
2,280,14,False,277.0,True,277.0,False,False,True
2,281,14,False,258.0,True,258.0,False,False,True
2,282,10,False,352.0,True,352.0,False,False,True
2,283,7,False,415.0,True,415.0,False,False,True
2,284,10,False,348.0,True,348.0,False,False,True
2,285,7,False,473.0,True,473.0,False,False,True
2,286,1,False,-1.0,False,,False,True,False
2,287,9,False,354.0,True,354.0,False,False,True
2,288,7,False,355.0,True,355.0,False,False,True
2,289,6,False,339.0,True,339.0,False,False,True
2,290,8,False,391.0,True,391.0,False,False,True
2,291,8,False,330.0,True,330.0,False,False,True
2,292,10,False,332.0,True,332.0,False,False,True
2,293,0,True,414.0,True,414.0,True,False,False
2,294,13,False,310.0,True,310.0,False,False,True
2,295,0,True,454.0,True,454.0,True,False,False
2,296,10,False,445.0,True,445.0,False,False,True
2,297,6,False,557.0,True,557.0,False,False,True
2,298,5,False,411.0,True,411.0,False,False,True
2,299,5,False,345.0,True,345.0,False,False,True
2,300,5,False,416.0,True,416.0,False,False,True
2,301,13,False,379.0,True,379.0,False,False,True
2,302,14,False,847.0,True,847.0,False,False,True
2,303,3,False,326.0,True,326.0,False,False,True
2,304,3,False,338.0,True,338.0,False,False,True
2,305,0,True,331.0,True,331.0,True,False,False
2,306,1,False,344.0,True,344.0,False,False,True
2,307,15,False,466.0,True,466.0,False,False,True
2,308,2,False,449.0,True,449.0,False,False,True
2,309,8,False,451.0,True,451.0,False,False,True
2,310,9,False,673.0,True,673.0,False,False,True
2,311,4,False,339.0,True,339.0,False,False,True
2,312,14,False,452.0,True,452.0,False,False,True
2,313,1,False,336.0,True,336.0,False,False,True
2,314,15,False,577.0,True,577.0,False,False,True
2,315,5,False,719.0,True,719.0,False,False,True
2,316,4,False,767.0,True,767.0,False,False,True
2,317,0,True,343.0,True,343.0,True,False,False
2,318,3,False,434.0,True,434.0,False,False,True
2,319,12,False,457.0,True,457.0,False,False,True
2,320,1,False,-1.0,False,,False,True,False
2,321,9,False,470.0,True,470.0,False,False,True
2,322,9,False,549.0,True,549.0,False,False,True
2,323,9,False,324.0,True,324.0,False,False,True
2,324,10,False,285.0,True,285.0,False,False,True
2,325,10,False,344.0,True,344.0,False,False,True
2,326,1,False,394.0,True,394.0,False,False,True
2,327,6,False,405.0,True,405.0,False,False,True
2,328,13,False,395.0,True,395.0,False,False,True
2,329,10,False,347.0,True,347.0,False,False,True
2,330,7,False,348.0,True,348.0,False,False,True
2,331,2,False,348.0,True,348.0,False,False,True
2,332,1,False,339.0,True,339.0,False,False,True
2,333,11,False,301.0,True,301.0,False,False,True
2,334,0,True,301.0,True,301.0,True,False,False
2,335,2,False,393.0,True,393.0,False,False,True
2,336,3,False,267.0,True,267.0,False,False,True
2,337,0,True,293.0,True,293.0,True,False,False
2,338,7,False,338.0,True,338.0,False,False,True
2,339,6,False,339.0,True,339.0,False,False,True
2,340,10,False,359.0,True,359.0,False,False,True
2,341,1,False,369.0,True,369.0,False,False,True
2,342,11,False,767.0,True,767.0,False,False,True
2,343,10,False,342.0,True,342.0,False,False,True
2,344,0,True,325.0,True,325.0,True,False,False
2,345,11,False,692.0,True,692.0,False,False,True
2,346,2,False,357.0,True,357.0,False,False,True
2,347,0,True,442.0,True,442.0,True,False,False
2,348,9,False,365.0,True,365.0,False,False,True
2,349,15,False,306.0,True,306.0,False,False,True
2,350,6,False,379.0,True,379.0,False,False,True
2,351,12,False,301.0,True,301.0,False,False,True
2,352,4,False,332.0,True,332.0,False,False,True
2,353,9,False,354.0,True,354.0,False,False,True
2,354,6,False,327.0,True,327.0,False,False,True
2,355,7,False,327.0,True,327.0,False,False,True
2,356,15,False,369.0,True,369.0,False,False,True
2,357,13,False,361.0,True,361.0,False,False,True
2,358,15,False,374.0,True,374.0,False,False,True
2,359,13,False,325.0,True,325.0,False,False,True
2,360,15,False,256.0,True,256.0,False,False,True
3,1,12,False,-1.0,False,,False,True,False
3,2,0,True,371.0,True,371.0,True,False,False
3,3,2,False,254.0,True,254.0,False,False,True
3,4,12,False,246.0,True,246.0,False,False,True
3,5,10,False,246.0,True,246.0,False,False,True
3,6,11,False,256.0,True,256.0,False,False,True
3,7,6,False,286.0,True,286.0,False,False,True
3,8,2,False,535.0,True,535.0,False,False,True
3,9,11,False,269.0,True,269.0,False,False,True
3,10,9,False,300.0,True,300.0,False,False,True
3,11,12,False,349.0,True,349.0,False,False,True
3,12,11,False,432.0,True,432.0,False,False,True
3,13,3,False,243.0,True,243.0,False,False,True
3,14,13,False,274.0,True,274.0,False,False,True
3,15,0,True,285.0,True,285.0,True,False,False
3,16,11,False,394.0,True,394.0,False,False,True
3,17,6,False,277.0,True,277.0,False,False,True
3,18,12,False,276.0,True,276.0,False,False,True
3,19,12,False,239.0,True,239.0,False,False,True
3,20,9,False,338.0,True,338.0,False,False,True
3,21,3,False,289.0,True,289.0,False,False,True
3,22,1,False,350.0,True,350.0,False,False,True
3,23,10,False,263.0,True,263.0,False,False,True
3,24,2,False,324.0,True,324.0,False,False,True
3,25,0,True,237.0,True,237.0,True,False,False
3,26,3,False,279.0,True,279.0,False,False,True
3,27,13,False,289.0,True,289.0,False,False,True
3,28,15,False,262.0,True,262.0,False,False,True
3,29,15,False,303.0,True,303.0,False,False,True
3,30,3,False,304.0,True,304.0,False,False,True
3,31,5,False,296.0,True,296.0,False,False,True
3,32,0,True,-1.0,False,,False,False,True
3,33,4,False,250.0,True,250.0,False,False,True
3,34,10,False,311.0,True,311.0,False,False,True
3,35,5,False,243.0,True,243.0,False,False,True
3,36,1,False,274.0,True,274.0,False,False,True
3,37,15,False,266.0,True,266.0,False,False,True
3,38,8,False,266.0,True,266.0,False,False,True
3,39,4,False,268.0,True,268.0,False,False,True
3,40,11,False,320.0,True,320.0,False,False,True
3,41,9,False,243.0,True,243.0,False,False,True
3,42,10,False,393.0,True,393.0,False,False,True
3,43,15,False,397.0,True,397.0,False,False,True
3,44,14,False,321.0,True,321.0,False,False,True
3,45,2,False,314.0,True,314.0,False,False,True
3,46,10,False,365.0,True,365.0,False,False,True
3,47,6,False,300.0,True,300.0,False,False,True
3,48,0,True,283.0,True,283.0,True,False,False
3,49,2,False,494.0,True,494.0,False,False,True
3,50,0,True,288.0,True,288.0,True,False,False
3,51,13,False,387.0,True,387.0,False,False,True
3,52,14,False,341.0,True,341.0,False,False,True
3,53,10,False,305.0,True,305.0,False,False,True
3,54,4,False,318.0,True,318.0,False,False,True
3,55,12,False,518.0,True,518.0,False,False,True
3,56,3,False,343.0,True,343.0,False,False,True
3,57,8,False,327.0,True,327.0,False,False,True
3,58,14,False,339.0,True,339.0,False,False,True
3,59,10,False,500.0,True,500.0,False,False,True
3,60,12,False,299.0,True,299.0,False,False,True
3,61,9,False,352.0,True,352.0,False,False,True
3,62,11,False,-1.0,False,,False,True,False
3,63,3,False,375.0,True,375.0,False,False,True
3,64,12,False,486.0,True,486.0,False,False,True
3,65,1,False,299.0,True,299.0,False,False,True
3,66,11,False,322.0,True,322.0,False,False,True
3,67,2,False,351.0,True,351.0,False,False,True
3,68,5,False,450.0,True,450.0,False,False,True
3,69,8,False,316.0,True,316.0,False,False,True
3,70,1,False,297.0,True,297.0,False,False,True
3,71,0,True,239.0,True,239.0,True,False,False
3,72,3,False,241.0,True,241.0,False,False,True
3,73,5,False,242.0,True,242.0,False,False,True
3,74,3,False,234.0,True,234.0,False,False,True
3,75,9,False,305.0,True,305.0,False,False,True
3,76,12,False,356.0,True,356.0,False,False,True
3,77,6,False,328.0,True,328.0,False,False,True
3,78,9,False,349.0,True,349.0,False,False,True
3,79,9,False,321.0,True,321.0,False,False,True
3,80,0,True,262.0,True,262.0,True,False,False
3,81,12,False,434.0,True,434.0,False,False,True
3,82,4,False,340.0,True,340.0,False,False,True
3,83,7,False,323.0,True,323.0,False,False,True
3,84,13,False,237.0,True,237.0,False,False,True
3,85,5,False,329.0,True,329.0,False,False,True
3,86,10,False,311.0,True,311.0,False,False,True
3,87,3,False,404.0,True,404.0,False,False,True
3,88,3,False,338.0,True,338.0,False,False,True
3,89,11,False,290.0,True,290.0,False,False,True
3,90,5,False,294.0,True,294.0,False,False,True
3,91,15,False,555.0,True,555.0,False,False,True
3,92,14,False,451.0,True,451.0,False,False,True
3,93,14,False,326.0,True,326.0,False,False,True
3,94,0,True,-1.0,False,,False,False,True
3,95,0,True,283.0,True,283.0,True,False,False
3,96,12,False,296.0,True,296.0,False,False,True
3,97,9,False,300.0,True,300.0,False,False,True
3,98,7,False,422.0,True,422.0,False,False,True
3,99,7,False,385.0,True,385.0,False,False,True
3,100,4,False,289.0,True,289.0,False,False,True
3,101,2,False,302.0,True,302.0,False,False,True
3,102,7,False,857.0,True,857.0,False,False,True
3,103,3,False,584.0,True,584.0,False,False,True
3,104,11,False,298.0,True,298.0,False,False,True
3,105,5,False,82.0,True,82.0,False,False,True
3,106,0,True,300.0,True,300.0,True,False,False
3,107,8,False,300.0,True,300.0,False,False,True
3,108,14,False,380.0,True,380.0,False,False,True
3,109,0,True,273.0,True,273.0,True,False,False
3,110,8,False,-1.0,False,,False,True,False
3,111,8,False,184.0,True,184.0,False,False,True
3,112,6,False,146.0,True,146.0,False,False,True
3,113,7,False,404.0,True,404.0,False,False,True
3,114,2,False,385.0,True,385.0,False,False,True
3,115,13,False,406.0,True,406.0,False,False,True
3,116,1,False,247.0,True,247.0,False,False,True
3,117,15,False,368.0,True,368.0,False,False,True
3,118,10,False,280.0,True,280.0,False,False,True
3,119,3,False,340.0,True,340.0,False,False,True
3,120,7,False,350.0,True,350.0,False,False,True
3,121,6,False,362.0,True,362.0,False,False,True
3,122,0,True,-1.0,False,,False,False,True
3,123,14,False,328.0,True,328.0,False,False,True
3,124,13,False,312.0,True,312.0,False,False,True
3,125,0,True,313.0,True,313.0,True,False,False
3,126,15,False,327.0,True,327.0,False,False,True
3,127,8,False,344.0,True,344.0,False,False,True
3,128,5,False,299.0,True,299.0,False,False,True
3,129,5,False,430.0,True,430.0,False,False,True
3,130,14,False,364.0,True,364.0,False,False,True
3,131,6,False,-1.0,False,,False,True,False
3,132,9,False,381.0,True,381.0,False,False,True
3,133,6,False,351.0,True,351.0,False,False,True
3,134,6,False,393.0,True,393.0,False,False,True
3,135,7,False,367.0,True,367.0,False,False,True
3,136,4,False,529.0,True,529.0,False,False,True
3,137,7,False,323.0,True,323.0,False,False,True
3,138,10,False,415.0,True,415.0,False,False,True
3,139,6,False,439.0,True,439.0,False,False,True
3,140,3,False,292.0,True,292.0,False,False,True
3,141,0,True,375.0,True,375.0,True,False,False
3,142,15,False,396.0,True,396.0,False,False,True
3,143,13,False,339.0,True,339.0,False,False,True
3,144,13,False,300.0,True,300.0,False,False,True
3,145,8,False,678.0,True,678.0,False,False,True
3,146,3,False,252.0,True,252.0,False,False,True
3,147,15,False,285.0,True,285.0,False,False,True
3,148,15,False,326.0,True,326.0,False,False,True
3,149,7,False,436.0,True,436.0,False,False,True
3,150,5,False,527.0,True,527.0,False,False,True
3,151,13,False,330.0,True,330.0,False,False,True
3,152,5,False,213.0,True,213.0,False,False,True
3,153,3,False,304.0,True,304.0,False,False,True
3,154,0,True,8.0,True,8.0,True,False,False
3,155,6,False,297.0,True,297.0,False,False,True
3,156,6,False,298.0,True,298.0,False,False,True
3,157,11,False,241.0,True,241.0,False,False,True
3,158,10,False,243.0,True,243.0,False,False,True
3,159,12,False,342.0,True,342.0,False,False,True
3,160,9,False,285.0,True,285.0,False,False,True
3,161,8,False,-1.0,False,,False,True,False
3,162,6,False,436.0,True,436.0,False,False,True
3,163,0,True,376.0,True,376.0,True,False,False
3,164,8,False,359.0,True,359.0,False,False,True
3,165,3,False,299.0,True,299.0,False,False,True
3,166,9,False,319.0,True,319.0,False,False,True
3,167,12,False,261.0,True,261.0,False,False,True
3,168,3,False,241.0,True,241.0,False,False,True
3,169,1,False,253.0,True,253.0,False,False,True
3,170,0,True,541.0,True,541.0,True,False,False
3,171,7,False,254.0,True,254.0,False,False,True
3,172,2,False,274.0,True,274.0,False,False,True
3,173,13,False,294.0,True,294.0,False,False,True
3,174,10,False,266.0,True,266.0,False,False,True
3,175,6,False,228.0,True,228.0,False,False,True
3,176,1,False,277.0,True,277.0,False,False,True
3,177,11,False,239.0,True,239.0,False,False,True
3,178,2,False,319.0,True,319.0,False,False,True
3,179,15,False,271.0,True,271.0,False,False,True
3,180,10,False,360.0,True,360.0,False,False,True
3,181,8,False,410.0,True,410.0,False,False,True
3,182,3,False,301.0,True,301.0,False,False,True
3,183,14,False,273.0,True,273.0,False,False,True
3,184,7,False,373.0,True,373.0,False,False,True
3,185,2,False,512.0,True,512.0,False,False,True
3,186,15,False,306.0,True,306.0,False,False,True
3,187,0,True,-1.0,False,,False,False,True
3,188,7,False,316.0,True,316.0,False,False,True
3,189,0,True,157.0,True,157.0,True,False,False
3,190,9,False,446.0,True,446.0,False,False,True
3,191,12,False,270.0,True,270.0,False,False,True
3,192,14,False,251.0,True,251.0,False,False,True
3,193,10,False,152.0,True,152.0,False,False,True
3,194,3,False,82.0,True,82.0,False,False,True
3,195,12,False,105.0,True,105.0,False,False,True
3,196,8,False,75.0,True,75.0,False,False,True
3,197,12,False,106.0,True,106.0,False,False,True
3,198,9,False,236.0,True,236.0,False,False,True
3,199,9,False,226.0,True,226.0,False,False,True
3,200,13,False,237.0,True,237.0,False,False,True
3,201,15,False,516.0,True,516.0,False,False,True
3,202,0,True,-1.0,False,,False,False,True
3,203,12,False,-1.0,False,,False,True,False
3,204,2,False,306.0,True,306.0,False,False,True
3,205,10,False,369.0,True,369.0,False,False,True
3,206,6,False,342.0,True,342.0,False,False,True
3,207,4,False,275.0,True,275.0,False,False,True
3,208,1,False,329.0,True,329.0,False,False,True
3,209,2,False,312.0,True,312.0,False,False,True
3,210,7,False,355.0,True,355.0,False,False,True
3,211,12,False,577.0,True,577.0,False,False,True
3,212,0,True,301.0,True,301.0,True,False,False
3,213,6,False,556.0,True,556.0,False,False,True
3,214,5,False,378.0,True,378.0,False,False,True
3,215,6,False,303.0,True,303.0,False,False,True
3,216,12,False,336.0,True,336.0,False,False,True
3,217,13,False,319.0,True,319.0,False,False,True
3,218,12,False,332.0,True,332.0,False,False,True
3,219,9,False,373.0,True,373.0,False,False,True
3,220,7,False,502.0,True,502.0,False,False,True
3,221,3,False,248.0,True,248.0,False,False,True
3,222,9,False,398.0,True,398.0,False,False,True
3,223,10,False,281.0,True,281.0,False,False,True
3,224,15,False,341.0,True,341.0,False,False,True
3,225,15,False,233.0,True,233.0,False,False,True
3,226,0,True,275.0,True,275.0,True,False,False
3,227,10,False,247.0,True,247.0,False,False,True
3,228,10,False,238.0,True,238.0,False,False,True
3,229,4,False,-1.0,False,,False,True,False
3,230,10,False,162.0,True,162.0,False,False,True
3,231,10,False,74.0,True,74.0,False,False,True
3,232,8,False,-1.0,False,,False,True,False
3,233,10,False,9.0,True,9.0,False,False,True
3,234,12,False,445.0,True,445.0,False,False,True
3,235,8,False,140.0,True,140.0,False,False,True
3,236,15,False,300.0,True,300.0,False,False,True
3,237,9,False,321.0,True,321.0,False,False,True
3,238,0,True,292.0,True,292.0,True,False,False
3,239,10,False,226.0,True,226.0,False,False,True
3,240,15,False,257.0,True,257.0,False,False,True
3,241,11,False,-1.0,False,,False,True,False
3,242,0,True,290.0,True,290.0,True,False,False
3,243,7,False,361.0,True,361.0,False,False,True
3,244,1,False,461.0,True,461.0,False,False,True
3,245,3,False,225.0,True,225.0,False,False,True
3,246,8,False,254.0,True,254.0,False,False,True
3,247,1,False,267.0,True,267.0,False,False,True
3,248,13,False,238.0,True,238.0,False,False,True
3,249,11,False,220.0,True,220.0,False,False,True
3,250,11,False,272.0,True,272.0,False,False,True
3,251,7,False,253.0,True,253.0,False,False,True
3,252,13,False,245.0,True,245.0,False,False,True
3,253,3,False,305.0,True,305.0,False,False,True
3,254,12,False,207.0,True,207.0,False,False,True
3,255,0,True,308.0,True,308.0,True,False,False
3,256,13,False,260.0,True,260.0,False,False,True
3,257,14,False,263.0,True,263.0,False,False,True
3,258,5,False,294.0,True,294.0,False,False,True
3,259,7,False,-1.0,False,,False,True,False
3,260,10,False,248.0,True,248.0,False,False,True
3,261,0,True,209.0,True,209.0,True,False,False
3,262,3,False,337.0,True,337.0,False,False,True
3,263,6,False,309.0,True,309.0,False,False,True
3,264,1,False,270.0,True,270.0,False,False,True
3,265,15,False,509.0,True,509.0,False,False,True
3,266,6,False,243.0,True,243.0,False,False,True
3,267,5,False,-1.0,False,,False,True,False
3,268,14,False,173.0,True,173.0,False,False,True
3,269,9,False,214.0,True,214.0,False,False,True
3,270,8,False,275.0,True,275.0,False,False,True
3,271,5,False,267.0,True,267.0,False,False,True
3,272,8,False,258.0,True,258.0,False,False,True
3,273,4,False,514.0,True,514.0,False,False,True
3,274,0,True,269.0,True,269.0,True,False,False
3,275,6,False,260.0,True,260.0,False,False,True
3,276,3,False,369.0,True,369.0,False,False,True
3,277,15,False,231.0,True,231.0,False,False,True
3,278,13,False,342.0,True,342.0,False,False,True
3,279,11,False,342.0,True,342.0,False,False,True
3,280,4,False,283.0,True,283.0,False,False,True
3,281,15,False,572.0,True,572.0,False,False,True
3,282,0,True,-1.0,False,,False,False,True
3,283,2,False,438.0,True,438.0,False,False,True
3,284,11,False,579.0,True,579.0,False,False,True
3,285,10,False,305.0,True,305.0,False,False,True
3,286,9,False,348.0,True,348.0,False,False,True
3,287,8,False,352.0,True,352.0,False,False,True
3,288,3,False,327.0,True,327.0,False,False,True
3,289,13,False,300.0,True,300.0,False,False,True
3,290,9,False,323.0,True,323.0,False,False,True
3,291,1,False,376.0,True,376.0,False,False,True
3,292,2,False,308.0,True,308.0,False,False,True
3,293,4,False,252.0,True,252.0,False,False,True
3,294,14,False,305.0,True,305.0,False,False,True
3,295,14,False,-1.0,False,,False,True,False
3,296,2,False,321.0,True,321.0,False,False,True
3,297,12,False,354.0,True,354.0,False,False,True
3,298,13,False,300.0,True,300.0,False,False,True
3,299,0,True,-1.0,False,,False,False,True
3,300,7,False,296.0,True,296.0,False,False,True
3,301,2,False,369.0,True,369.0,False,False,True
3,302,9,False,371.0,True,371.0,False,False,True
3,303,10,False,326.0,True,326.0,False,False,True
3,304,10,False,278.0,True,278.0,False,False,True
3,305,0,True,360.0,True,360.0,True,False,False
3,306,5,False,294.0,True,294.0,False,False,True
3,307,3,False,376.0,True,376.0,False,False,True
3,308,6,False,338.0,True,338.0,False,False,True
3,309,0,True,332.0,True,332.0,True,False,False
3,310,13,False,414.0,True,414.0,False,False,True
3,311,12,False,250.0,True,250.0,False,False,True
3,312,3,False,341.0,True,341.0,False,False,True
3,313,10,False,552.0,True,552.0,False,False,True
3,314,11,False,624.0,True,624.0,False,False,True
3,315,11,False,350.0,True,350.0,False,False,True
3,316,3,False,402.0,True,402.0,False,False,True
3,317,8,False,249.0,True,249.0,False,False,True
3,318,11,False,350.0,True,350.0,False,False,True
3,319,3,False,334.0,True,334.0,False,False,True
3,320,5,False,525.0,True,525.0,False,False,True
3,321,15,False,420.0,True,420.0,False,False,True
3,322,13,False,419.0,True,419.0,False,False,True
3,323,7,False,243.0,True,243.0,False,False,True
3,324,2,False,272.0,True,272.0,False,False,True
3,325,6,False,234.0,True,234.0,False,False,True
3,326,0,True,284.0,True,284.0,True,False,False
3,327,6,False,274.0,True,274.0,False,False,True
3,328,3,False,246.0,True,246.0,False,False,True
3,329,6,False,197.0,True,197.0,False,False,True
3,330,3,False,287.0,True,287.0,False,False,True
3,331,5,False,308.0,True,308.0,False,False,True
3,332,4,False,290.0,True,290.0,False,False,True
3,333,10,False,409.0,True,409.0,False,False,True
3,334,4,False,241.0,True,241.0,False,False,True
3,335,12,False,301.0,True,301.0,False,False,True
3,336,11,False,292.0,True,292.0,False,False,True
3,337,0,True,-1.0,False,,False,False,True
3,338,10,False,214.0,True,214.0,False,False,True
3,339,15,False,285.0,True,285.0,False,False,True
3,340,4,False,265.0,True,265.0,False,False,True
3,341,7,False,187.0,True,187.0,False,False,True
3,342,4,False,524.0,True,524.0,False,False,True
3,343,10,False,290.0,True,290.0,False,False,True
3,344,14,False,260.0,True,260.0,False,False,True
3,345,0,True,253.0,True,253.0,True,False,False
3,346,3,False,313.0,True,313.0,False,False,True
3,347,1,False,395.0,True,395.0,False,False,True
3,348,15,False,297.0,True,297.0,False,False,True
3,349,4,False,239.0,True,239.0,False,False,True
3,350,7,False,330.0,True,330.0,False,False,True
3,351,7,False,321.0,True,321.0,False,False,True
3,352,0,True,312.0,True,312.0,True,False,False
3,353,15,False,236.0,True,236.0,False,False,True
3,354,12,False,326.0,True,326.0,False,False,True
3,355,5,False,266.0,True,266.0,False,False,True
3,356,9,False,290.0,True,290.0,False,False,True
3,357,15,False,320.0,True,320.0,False,False,True
3,358,14,False,283.0,True,283.0,False,False,True
3,359,11,False,323.0,True,323.0,False,False,True
3,360,2,False,285.0,True,285.0,False,False,True
4,1,14,False,-1.0,False,,False,True,False
4,2,10,False,-1.0,False,,False,True,False
4,3,3,False,421.0,True,421.0,False,False,True
4,4,11,False,393.0,True,393.0,False,False,True
4,5,3,False,384.0,True,384.0,False,False,True
4,6,2,False,377.0,True,377.0,False,False,True
4,7,1,False,407.0,True,407.0,False,False,True
4,8,5,False,399.0,True,399.0,False,False,True
4,9,11,False,465.0,True,465.0,False,False,True
4,10,14,False,595.0,True,595.0,False,False,True
4,11,12,False,249.0,True,249.0,False,False,True
4,12,9,False,440.0,True,440.0,False,False,True
4,13,0,True,441.0,True,441.0,True,False,False
4,14,10,False,659.0,True,659.0,False,False,True
4,15,14,False,549.0,True,549.0,False,False,True
4,16,7,False,500.0,True,500.0,False,False,True
4,17,6,False,-1.0,False,,False,True,False
4,18,4,False,87.0,True,87.0,False,False,True
4,19,3,False,612.0,True,612.0,False,False,True
4,20,0,True,335.0,True,335.0,True,False,False
4,21,9,False,997.0,True,997.0,False,False,True
4,22,14,False,354.0,True,354.0,False,False,True
4,23,11,False,356.0,True,356.0,False,False,True
4,24,12,False,-1.0,False,,False,True,False
4,25,9,False,348.0,True,348.0,False,False,True
4,26,3,False,351.0,True,351.0,False,False,True
4,27,0,True,280.0,True,280.0,True,False,False
4,28,5,False,331.0,True,331.0,False,False,True
4,29,5,False,315.0,True,315.0,False,False,True
4,30,2,False,571.0,True,571.0,False,False,True
4,31,10,False,413.0,True,413.0,False,False,True
4,32,15,False,347.0,True,347.0,False,False,True
4,33,3,False,377.0,True,377.0,False,False,True
4,34,1,False,476.0,True,476.0,False,False,True
4,35,6,False,567.0,True,567.0,False,False,True
4,36,3,False,527.0,True,527.0,False,False,True
4,37,4,False,479.0,True,479.0,False,False,True
4,38,1,False,542.0,True,542.0,False,False,True
4,39,6,False,402.0,True,402.0,False,False,True
4,40,0,True,383.0,True,383.0,True,False,False
4,41,11,False,609.0,True,609.0,False,False,True
4,42,3,False,460.0,True,460.0,False,False,True
4,43,13,False,393.0,True,393.0,False,False,True
4,44,2,False,548.0,True,548.0,False,False,True
4,45,8,False,577.0,True,577.0,False,False,True
4,46,2,False,619.0,True,619.0,False,False,True
4,47,0,True,-1.0,False,,False,False,True
4,48,1,False,484.0,True,484.0,False,False,True
4,49,8,False,635.0,True,635.0,False,False,True
4,50,2,False,629.0,True,629.0,False,False,True
4,51,5,False,658.0,True,658.0,False,False,True
4,52,5,False,472.0,True,472.0,False,False,True
4,53,8,False,486.0,True,486.0,False,False,True
4,54,7,False,497.0,True,497.0,False,False,True
4,55,6,False,607.0,True,607.0,False,False,True
4,56,7,False,383.0,True,383.0,False,False,True
4,57,14,False,511.0,True,511.0,False,False,True
4,58,0,True,-1.0,False,,False,False,True
4,59,10,False,259.0,True,259.0,False,False,True
4,60,10,False,438.0,True,438.0,False,False,True
4,61,9,False,510.0,True,510.0,False,False,True
4,62,1,False,373.0,True,373.0,False,False,True
4,63,2,False,407.0,True,407.0,False,False,True
4,64,0,True,375.0,True,375.0,True,False,False
4,65,2,False,396.0,True,396.0,False,False,True
4,66,4,False,342.0,True,342.0,False,False,True
4,67,5,False,376.0,True,376.0,False,False,True
4,68,2,False,463.0,True,463.0,False,False,True
4,69,4,False,778.0,True,778.0,False,False,True
4,70,11,False,541.0,True,541.0,False,False,True
4,71,0,True,524.0,True,524.0,True,False,False
4,72,7,False,615.0,True,615.0,False,False,True
4,73,8,False,382.0,True,382.0,False,False,True
4,74,1,False,443.0,True,443.0,False,False,True
4,75,12,False,405.0,True,405.0,False,False,True
4,76,4,False,347.0,True,347.0,False,False,True
4,77,14,False,733.0,True,733.0,False,False,True
4,78,7,False,617.0,True,617.0,False,False,True
4,79,14,False,605.0,True,605.0,False,False,True
4,80,1,False,499.0,True,499.0,False,False,True
4,81,0,True,-1.0,False,,False,False,True
4,82,9,False,541.0,True,541.0,False,False,True
4,83,10,False,535.0,True,535.0,False,False,True
4,84,13,False,429.0,True,429.0,False,False,True
4,85,3,False,339.0,True,339.0,False,False,True
4,86,15,False,867.0,True,867.0,False,False,True
4,87,12,False,521.0,True,521.0,False,False,True
4,88,10,False,442.0,True,442.0,False,False,True
4,89,8,False,376.0,True,376.0,False,False,True
4,90,9,False,-1.0,False,,False,True,False
4,91,1,False,548.0,True,548.0,False,False,True
4,92,12,False,502.0,True,502.0,False,False,True
4,93,7,False,737.0,True,737.0,False,False,True
4,94,7,False,474.0,True,474.0,False,False,True
4,95,13,False,426.0,True,426.0,False,False,True
4,96,8,False,313.0,True,313.0,False,False,True
4,97,11,False,338.0,True,338.0,False,False,True
4,98,0,True,411.0,True,411.0,True,False,False
4,99,1,False,836.0,True,836.0,False,False,True
4,100,4,False,478.0,True,478.0,False,False,True
4,101,0,True,-1.0,False,,False,False,True
4,102,9,False,541.0,True,541.0,False,False,True
4,103,8,False,373.0,True,373.0,False,False,True
4,104,1,False,259.0,True,259.0,False,False,True
4,105,3,False,210.0,True,210.0,False,False,True
4,106,10,False,262.0,True,262.0,False,False,True
4,107,3,False,211.0,True,211.0,False,False,True
4,108,4,False,304.0,True,304.0,False,False,True
4,109,1,False,296.0,True,296.0,False,False,True
4,110,2,False,318.0,True,318.0,False,False,True
4,111,15,False,302.0,True,302.0,False,False,True
4,112,0,True,255.0,True,255.0,True,False,False
4,113,12,False,257.0,True,257.0,False,False,True
4,114,6,False,318.0,True,318.0,False,False,True
4,115,13,False,390.0,True,390.0,False,False,True
4,116,15,False,948.0,True,948.0,False,False,True
4,117,8,False,-1.0,False,,False,True,False
4,118,9,False,268.0,True,268.0,False,False,True
4,119,9,False,317.0,True,317.0,False,False,True
4,120,11,False,396.0,True,396.0,False,False,True
4,121,5,False,300.0,True,300.0,False,False,True
4,122,0,True,607.0,True,607.0,True,False,False
4,123,0,True,444.0,True,444.0,True,False,False
4,124,6,False,456.0,True,456.0,False,False,True
4,125,10,False,613.0,True,613.0,False,False,True
4,126,4,False,759.0,True,759.0,False,False,True
4,127,5,False,314.0,True,314.0,False,False,True
4,128,12,False,822.0,True,822.0,False,False,True
4,129,11,False,523.0,True,523.0,False,False,True
4,130,13,False,474.0,True,474.0,False,False,True
4,131,6,False,608.0,True,608.0,False,False,True
4,132,13,False,541.0,True,541.0,False,False,True
4,133,11,False,553.0,True,553.0,False,False,True
4,134,12,False,603.0,True,603.0,False,False,True
4,135,10,False,519.0,True,519.0,False,False,True
4,136,5,False,472.0,True,472.0,False,False,True
4,137,14,False,575.0,True,575.0,False,False,True
4,138,4,False,410.0,True,410.0,False,False,True
4,139,7,False,480.0,True,480.0,False,False,True
4,140,3,False,471.0,True,471.0,False,False,True
4,141,15,False,755.0,True,755.0,False,False,True
4,142,15,False,446.0,True,446.0,False,False,True
4,143,13,False,398.0,True,398.0,False,False,True
4,144,3,False,391.0,True,391.0,False,False,True
4,145,15,False,302.0,True,302.0,False,False,True
4,146,12,False,412.0,True,412.0,False,False,True
4,147,15,False,425.0,True,425.0,False,False,True
4,148,2,False,414.0,True,414.0,False,False,True
4,149,0,True,-1.0,False,,False,False,True
4,150,5,False,310.0,True,310.0,False,False,True
4,151,1,False,269.0,True,269.0,False,False,True
4,152,2,False,321.0,True,321.0,False,False,True
4,153,6,False,353.0,True,353.0,False,False,True
4,154,11,False,342.0,True,342.0,False,False,True
4,155,8,False,531.0,True,531.0,False,False,True
4,156,14,False,563.0,True,563.0,False,False,True
4,157,12,False,296.0,True,296.0,False,False,True
4,158,7,False,346.0,True,346.0,False,False,True
4,159,12,False,1221.0,True,1221.0,False,False,True
4,160,0,True,765.0,True,765.0,True,False,False
4,161,6,False,-1.0,False,,False,True,False
4,162,1,False,402.0,True,402.0,False,False,True
4,163,14,False,463.0,True,463.0,False,False,True
4,164,2,False,294.0,True,294.0,False,False,True
4,165,7,False,371.0,True,371.0,False,False,True
4,166,2,False,640.0,True,640.0,False,False,True
4,167,0,True,205.0,True,205.0,True,False,False
4,168,5,False,465.0,True,465.0,False,False,True
4,169,10,False,356.0,True,356.0,False,False,True
4,170,2,False,545.0,True,545.0,False,False,True
4,171,12,False,336.0,True,336.0,False,False,True
4,172,9,False,425.0,True,425.0,False,False,True
4,173,14,False,545.0,True,545.0,False,False,True
4,174,13,False,381.0,True,381.0,False,False,True
4,175,3,False,262.0,True,262.0,False,False,True
4,176,13,False,313.0,True,313.0,False,False,True
4,177,15,False,430.0,True,430.0,False,False,True
4,178,0,True,371.0,True,371.0,True,False,False
4,179,5,False,-1.0,False,,False,True,False
4,180,12,False,558.0,True,558.0,False,False,True
4,181,5,False,522.0,True,522.0,False,False,True
4,182,11,False,-1.0,False,,False,True,False
4,183,14,False,155.0,True,155.0,False,False,True
4,184,7,False,474.0,True,474.0,False,False,True
4,185,0,True,366.0,True,366.0,True,False,False
4,186,8,False,-1.0,False,,False,True,False
4,187,9,False,329.0,True,329.0,False,False,True
4,188,2,False,220.0,True,220.0,False,False,True
4,189,0,True,318.0,True,318.0,True,False,False
4,190,8,False,-1.0,False,,False,True,False
4,191,5,False,251.0,True,251.0,False,False,True
4,192,4,False,342.0,True,342.0,False,False,True
4,193,3,False,352.0,True,352.0,False,False,True
4,194,7,False,413.0,True,413.0,False,False,True
4,195,6,False,343.0,True,343.0,False,False,True
4,196,9,False,441.0,True,441.0,False,False,True
4,197,14,False,650.0,True,650.0,False,False,True
4,198,15,False,433.0,True,433.0,False,False,True
4,199,11,False,335.0,True,335.0,False,False,True
4,200,5,False,407.0,True,407.0,False,False,True
4,201,10,False,384.0,True,384.0,False,False,True
4,202,5,False,548.0,True,548.0,False,False,True
4,203,10,False,737.0,True,737.0,False,False,True
4,204,7,False,382.0,True,382.0,False,False,True
4,205,7,False,377.0,True,377.0,False,False,True
4,206,5,False,544.0,True,544.0,False,False,True
4,207,12,False,516.0,True,516.0,False,False,True
4,208,2,False,366.0,True,366.0,False,False,True
4,209,13,False,367.0,True,367.0,False,False,True
4,210,12,False,341.0,True,341.0,False,False,True
4,211,3,False,462.0,True,462.0,False,False,True
4,212,0,True,-1.0,False,,False,False,True
4,213,14,False,552.0,True,552.0,False,False,True
4,214,10,False,549.0,True,549.0,False,False,True
4,215,15,False,511.0,True,511.0,False,False,True
4,216,11,False,861.0,True,861.0,False,False,True
4,217,15,False,660.0,True,660.0,False,False,True
4,218,14,False,443.0,True,443.0,False,False,True
4,219,2,False,745.0,True,745.0,False,False,True
4,220,0,True,414.0,True,414.0,True,False,False
4,221,15,False,661.0,True,661.0,False,False,True
4,222,0,True,-1.0,False,,False,False,True
4,223,9,False,475.0,True,475.0,False,False,True
4,224,3,False,407.0,True,407.0,False,False,True
4,225,7,False,412.0,True,412.0,False,False,True
4,226,14,False,372.0,True,372.0,False,False,True
4,227,15,False,789.0,True,789.0,False,False,True
4,228,13,False,604.0,True,604.0,False,False,True
4,229,3,False,642.0,True,642.0,False,False,True
4,230,10,False,394.0,True,394.0,False,False,True
4,231,1,False,438.0,True,438.0,False,False,True
4,232,14,False,571.0,True,571.0,False,False,True
4,233,9,False,698.0,True,698.0,False,False,True
4,234,5,False,601.0,True,601.0,False,False,True
4,235,12,False,332.0,True,332.0,False,False,True
4,236,8,False,343.0,True,343.0,False,False,True
4,237,13,False,644.0,True,644.0,False,False,True
4,238,0,True,335.0,True,335.0,True,False,False
4,239,9,False,367.0,True,367.0,False,False,True
4,240,10,False,368.0,True,368.0,False,False,True
4,241,15,False,429.0,True,429.0,False,False,True
4,242,1,False,379.0,True,379.0,False,False,True
4,243,0,True,444.0,True,444.0,True,False,False
4,244,9,False,626.0,True,626.0,False,False,True
4,245,1,False,-1.0,False,,False,True,False
4,246,13,False,-1.0,False,,False,True,False
4,247,10,False,500.0,True,500.0,False,False,True
4,248,7,False,392.0,True,392.0,False,False,True
4,249,9,False,545.0,True,545.0,False,False,True
4,250,3,False,365.0,True,365.0,False,False,True
4,251,12,False,704.0,True,704.0,False,False,True
4,252,6,False,538.0,True,538.0,False,False,True
4,253,7,False,292.0,True,292.0,False,False,True
4,254,5,False,323.0,True,323.0,False,False,True
4,255,4,False,328.0,True,328.0,False,False,True
4,256,10,False,299.0,True,299.0,False,False,True
4,257,6,False,354.0,True,354.0,False,False,True
4,258,12,False,90.0,True,90.0,False,False,True
4,259,15,False,339.0,True,339.0,False,False,True
4,260,0,True,470.0,True,470.0,True,False,False
4,261,14,False,328.0,True,328.0,False,False,True
4,262,2,False,764.0,True,764.0,False,False,True
4,263,0,True,368.0,True,368.0,True,False,False
4,264,12,False,338.0,True,338.0,False,False,True
4,265,7,False,388.0,True,388.0,False,False,True
4,266,12,False,540.0,True,540.0,False,False,True
4,267,8,False,391.0,True,391.0,False,False,True
4,268,14,False,620.0,True,620.0,False,False,True
4,269,13,False,390.0,True,390.0,False,False,True
4,270,1,False,441.0,True,441.0,False,False,True
4,271,10,False,352.0,True,352.0,False,False,True
4,272,9,False,464.0,True,464.0,False,False,True
4,273,11,False,454.0,True,454.0,False,False,True
4,274,13,False,485.0,True,485.0,False,False,True
4,275,4,False,493.0,True,493.0,False,False,True
4,276,7,False,394.0,True,394.0,False,False,True
4,277,0,True,-1.0,False,,False,False,True
4,278,12,False,249.0,True,249.0,False,False,True
4,279,5,False,319.0,True,319.0,False,False,True
4,280,8,False,359.0,True,359.0,False,False,True
4,281,4,False,309.0,True,309.0,False,False,True
4,282,12,False,423.0,True,423.0,False,False,True
4,283,9,False,544.0,True,544.0,False,False,True
4,284,14,False,420.0,True,420.0,False,False,True
4,285,0,True,-1.0,False,,False,False,True
4,286,7,False,484.0,True,484.0,False,False,True
4,287,2,False,576.0,True,576.0,False,False,True
4,288,12,False,442.0,True,442.0,False,False,True
4,289,0,True,-1.0,False,,False,False,True
4,290,9,False,714.0,True,714.0,False,False,True
4,291,11,False,664.0,True,664.0,False,False,True
4,292,9,False,414.0,True,414.0,False,False,True
4,293,12,False,644.0,True,644.0,False,False,True
4,294,9,False,651.0,True,651.0,False,False,True
4,295,15,False,762.0,True,762.0,False,False,True
4,296,7,False,694.0,True,694.0,False,False,True
4,297,8,False,589.0,True,589.0,False,False,True
4,298,9,False,480.0,True,480.0,False,False,True
4,299,6,False,563.0,True,563.0,False,False,True
4,300,4,False,876.0,True,876.0,False,False,True
4,301,1,False,371.0,True,371.0,False,False,True
4,302,13,False,419.0,True,419.0,False,False,True
4,303,9,False,506.0,True,506.0,False,False,True
4,304,0,True,368.0,True,368.0,True,False,False
4,305,3,False,441.0,True,441.0,False,False,True
4,306,15,False,764.0,True,764.0,False,False,True
4,307,10,False,467.0,True,467.0,False,False,True
4,308,0,True,-1.0,False,,False,False,True
4,309,5,False,295.0,True,295.0,False,False,True
4,310,14,False,639.0,True,639.0,False,False,True
4,311,5,False,524.0,True,524.0,False,False,True
4,312,10,False,629.0,True,629.0,False,False,True
4,313,3,False,649.0,True,649.0,False,False,True
4,314,6,False,462.0,True,462.0,False,False,True
4,315,12,False,585.0,True,585.0,False,False,True
4,316,8,False,597.0,True,597.0,False,False,True
4,317,14,False,462.0,True,462.0,False,False,True
4,318,5,False,614.0,True,614.0,False,False,True
4,319,2,False,684.0,True,684.0,False,False,True
4,320,9,False,807.0,True,807.0,False,False,True
4,321,13,False,592.0,True,592.0,False,False,True
4,322,0,True,-1.0,False,,False,False,True
4,323,3,False,406.0,True,406.0,False,False,True
4,324,0,True,307.0,True,307.0,True,False,False
4,325,9,False,446.0,True,446.0,False,False,True
4,326,15,False,330.0,True,330.0,False,False,True
4,327,8,False,360.0,True,360.0,False,False,True
4,328,13,False,382.0,True,382.0,False,False,True
4,329,13,False,568.0,True,568.0,False,False,True
4,330,12,False,698.0,True,698.0,False,False,True
4,331,11,False,808.0,True,808.0,False,False,True
4,332,10,False,-1.0,False,,False,True,False
4,333,6,False,436.0,True,436.0,False,False,True
4,334,9,False,356.0,True,356.0,False,False,True
4,335,1,False,355.0,True,355.0,False,False,True
4,336,6,False,485.0,True,485.0,False,False,True
4,337,2,False,-1.0,False,,False,True,False
4,338,15,False,2.0,True,2.0,False,False,True
4,339,10,False,-1.0,False,,False,True,False
4,340,5,False,686.0,True,686.0,False,False,True
4,341,1,False,239.0,True,239.0,False,False,True
4,342,8,False,380.0,True,380.0,False,False,True
4,343,1,False,362.0,True,362.0,False,False,True
4,344,12,False,361.0,True,361.0,False,False,True
4,345,6,False,475.0,True,475.0,False,False,True
4,346,5,False,369.0,True,369.0,False,False,True
4,347,0,True,419.0,True,419.0,True,False,False
4,348,4,False,622.0,True,622.0,False,False,True
4,349,7,False,518.0,True,518.0,False,False,True
4,350,13,False,558.0,True,558.0,False,False,True
4,351,0,True,-1.0,False,,False,False,True
4,352,4,False,325.0,True,325.0,False,False,True
4,353,10,False,324.0,True,324.0,False,False,True
4,354,12,False,424.0,True,424.0,False,False,True
4,355,6,False,366.0,True,366.0,False,False,True
4,356,6,False,664.0,True,664.0,False,False,True
4,357,9,False,398.0,True,398.0,False,False,True
4,358,3,False,609.0,True,609.0,False,False,True
4,359,14,False,430.0,True,430.0,False,False,True
4,360,7,False,520.0,True,520.0,False,False,True
5,1,12,False,459.0,True,459.0,False,False,True
5,2,7,False,289.0,True,289.0,False,False,True
5,3,12,False,256.0,True,256.0,False,False,True
5,4,7,False,254.0,True,254.0,False,False,True
5,5,4,False,244.0,True,244.0,False,False,True
5,6,9,False,251.0,True,251.0,False,False,True
5,7,0,True,255.0,True,255.0,True,False,False
5,8,12,False,295.0,True,295.0,False,False,True
5,9,8,False,252.0,True,252.0,False,False,True
5,10,0,True,267.0,True,267.0,True,False,False
5,11,8,False,344.0,True,344.0,False,False,True
5,12,2,False,270.0,True,270.0,False,False,True
5,13,12,False,260.0,True,260.0,False,False,True
5,14,13,False,306.0,True,306.0,False,False,True
5,15,2,False,465.0,True,465.0,False,False,True
5,16,2,False,278.0,True,278.0,False,False,True
5,17,6,False,284.0,True,284.0,False,False,True
5,18,10,False,257.0,True,257.0,False,False,True
5,19,4,False,272.0,True,272.0,False,False,True
5,20,5,False,254.0,True,254.0,False,False,True
5,21,9,False,300.0,True,300.0,False,False,True
5,22,1,False,322.0,True,322.0,False,False,True
5,23,15,False,320.0,True,320.0,False,False,True
5,24,7,False,326.0,True,326.0,False,False,True
5,25,13,False,316.0,True,316.0,False,False,True
5,26,7,False,345.0,True,345.0,False,False,True
5,27,4,False,311.0,True,311.0,False,False,True
5,28,4,False,318.0,True,318.0,False,False,True
5,29,12,False,300.0,True,300.0,False,False,True
5,30,10,False,280.0,True,280.0,False,False,True
5,31,3,False,320.0,True,320.0,False,False,True
5,32,5,False,286.0,True,286.0,False,False,True
5,33,6,False,-1.0,False,,False,True,False
5,34,10,False,212.0,True,212.0,False,False,True
5,35,9,False,434.0,True,434.0,False,False,True
5,36,0,True,256.0,True,256.0,True,False,False
5,37,14,False,325.0,True,325.0,False,False,True
5,38,0,True,292.0,True,292.0,True,False,False
5,39,3,False,314.0,True,314.0,False,False,True
5,40,8,False,295.0,True,295.0,False,False,True
5,41,4,False,246.0,True,246.0,False,False,True
5,42,14,False,307.0,True,307.0,False,False,True
5,43,11,False,297.0,True,297.0,False,False,True
5,44,1,False,391.0,True,391.0,False,False,True
5,45,0,True,317.0,True,317.0,True,False,False
5,46,9,False,386.0,True,386.0,False,False,True
5,47,11,False,329.0,True,329.0,False,False,True
5,48,14,False,319.0,True,319.0,False,False,True
5,49,13,False,357.0,True,357.0,False,False,True
5,50,11,False,442.0,True,442.0,False,False,True
5,51,15,False,337.0,True,337.0,False,False,True
5,52,15,False,350.0,True,350.0,False,False,True
5,53,7,False,557.0,True,557.0,False,False,True
5,54,13,False,347.0,True,347.0,False,False,True
5,55,1,False,369.0,True,369.0,False,False,True
5,56,1,False,310.0,True,310.0,False,False,True
5,57,5,False,357.0,True,357.0,False,False,True
5,58,2,False,315.0,True,315.0,False,False,True
5,59,9,False,288.0,True,288.0,False,False,True
5,60,0,True,727.0,True,727.0,True,False,False
5,61,15,False,660.0,True,660.0,False,False,True
5,62,9,False,522.0,True,522.0,False,False,True
5,63,11,False,296.0,True,296.0,False,False,True
5,64,3,False,303.0,True,303.0,False,False,True
5,65,4,False,765.0,True,765.0,False,False,True
5,66,5,False,362.0,True,362.0,False,False,True
5,67,13,False,336.0,True,336.0,False,False,True
5,68,0,True,268.0,True,268.0,True,False,False
5,69,12,False,404.0,True,404.0,False,False,True
5,70,12,False,297.0,True,297.0,False,False,True
5,71,13,False,320.0,True,320.0,False,False,True
5,72,1,False,462.0,True,462.0,False,False,True
5,73,13,False,316.0,True,316.0,False,False,True
5,74,7,False,434.0,True,434.0,False,False,True
5,75,0,True,-1.0,False,,False,False,True
5,76,5,False,552.0,True,552.0,False,False,True
5,77,8,False,350.0,True,350.0,False,False,True
5,78,7,False,372.0,True,372.0,False,False,True
5,79,3,False,258.0,True,258.0,False,False,True
5,80,12,False,327.0,True,327.0,False,False,True
5,81,13,False,276.0,True,276.0,False,False,True
5,82,9,False,482.0,True,482.0,False,False,True
5,83,1,False,264.0,True,264.0,False,False,True
5,84,10,False,437.0,True,437.0,False,False,True
5,85,7,False,331.0,True,331.0,False,False,True
5,86,5,False,361.0,True,361.0,False,False,True
5,87,12,False,367.0,True,367.0,False,False,True
5,88,1,False,374.0,True,374.0,False,False,True
5,89,0,True,299.0,True,299.0,True,False,False
5,90,0,True,-1.0,False,,False,False,True
5,91,15,False,377.0,True,377.0,False,False,True
5,92,14,False,271.0,True,271.0,False,False,True
5,93,7,False,334.0,True,334.0,False,False,True
5,94,13,False,435.0,True,435.0,False,False,True
5,95,11,False,304.0,True,304.0,False,False,True
5,96,12,False,319.0,True,319.0,False,False,True
5,97,11,False,301.0,True,301.0,False,False,True
5,98,7,False,258.0,True,258.0,False,False,True
5,99,8,False,425.0,True,425.0,False,False,True
5,100,7,False,311.0,True,311.0,False,False,True
5,101,9,False,325.0,True,325.0,False,False,True
5,102,14,False,594.0,True,594.0,False,False,True
5,103,2,False,94.0,True,94.0,False,False,True
5,104,7,False,65.0,True,65.0,False,False,True
5,105,7,False,278.0,True,278.0,False,False,True
5,106,3,False,309.0,True,309.0,False,False,True
5,107,0,True,939.0,True,939.0,True,False,False
5,108,4,False,-1.0,False,,False,True,False
5,109,11,False,457.0,True,457.0,False,False,True
5,110,9,False,367.0,True,367.0,False,False,True
5,111,4,False,244.0,True,244.0,False,False,True
5,112,15,False,275.0,True,275.0,False,False,True
5,113,15,False,224.0,True,224.0,False,False,True
5,114,12,False,231.0,True,231.0,False,False,True
5,115,1,False,220.0,True,220.0,False,False,True
5,116,10,False,193.0,True,193.0,False,False,True
5,117,14,False,216.0,True,216.0,False,False,True
5,118,9,False,255.0,True,255.0,False,False,True
5,119,5,False,292.0,True,292.0,False,False,True
5,120,0,True,313.0,True,313.0,True,False,False
5,121,8,False,376.0,True,376.0,False,False,True
5,122,4,False,366.0,True,366.0,False,False,True
5,123,2,False,372.0,True,372.0,False,False,True
5,124,5,False,298.0,True,298.0,False,False,True
5,125,11,False,295.0,True,295.0,False,False,True
5,126,4,False,302.0,True,302.0,False,False,True
5,127,0,True,276.0,True,276.0,True,False,False
5,128,8,False,338.0,True,338.0,False,False,True
5,129,7,False,502.0,True,502.0,False,False,True
5,130,12,False,230.0,True,230.0,False,False,True
5,131,0,True,283.0,True,283.0,True,False,False
5,132,14,False,330.0,True,330.0,False,False,True
5,133,1,False,280.0,True,280.0,False,False,True
5,134,8,False,422.0,True,422.0,False,False,True
5,135,12,False,235.0,True,235.0,False,False,True
5,136,12,False,250.0,True,250.0,False,False,True
5,137,7,False,280.0,True,280.0,False,False,True
5,138,8,False,342.0,True,342.0,False,False,True
5,139,8,False,331.0,True,331.0,False,False,True
5,140,10,False,305.0,True,305.0,False,False,True
5,141,7,False,407.0,True,407.0,False,False,True
5,142,6,False,605.0,True,605.0,False,False,True
5,143,5,False,882.0,True,882.0,False,False,True
5,144,6,False,441.0,True,441.0,False,False,True
5,145,6,False,367.0,True,367.0,False,False,True
5,146,15,False,364.0,True,364.0,False,False,True
5,147,5,False,427.0,True,427.0,False,False,True
5,148,2,False,297.0,True,297.0,False,False,True
5,149,8,False,319.0,True,319.0,False,False,True
5,150,1,False,301.0,True,301.0,False,False,True
5,151,1,False,370.0,True,370.0,False,False,True
5,152,0,True,265.0,True,265.0,True,False,False
5,153,3,False,310.0,True,310.0,False,False,True
5,154,5,False,342.0,True,342.0,False,False,True
5,155,13,False,171.0,True,171.0,False,False,True
5,156,4,False,256.0,True,256.0,False,False,True
5,157,2,False,287.0,True,287.0,False,False,True
5,158,5,False,237.0,True,237.0,False,False,True
5,159,0,True,281.0,True,281.0,True,False,False
5,160,11,False,361.0,True,361.0,False,False,True
5,161,11,False,294.0,True,294.0,False,False,True
5,162,0,True,316.0,True,316.0,True,False,False
5,163,14,False,442.0,True,442.0,False,False,True
5,164,5,False,312.0,True,312.0,False,False,True
5,165,9,False,271.0,True,271.0,False,False,True
5,166,8,False,261.0,True,261.0,False,False,True
5,167,8,False,250.0,True,250.0,False,False,True
5,168,7,False,297.0,True,297.0,False,False,True
5,169,9,False,327.0,True,327.0,False,False,True
5,170,8,False,317.0,True,317.0,False,False,True
5,171,9,False,306.0,True,306.0,False,False,True
5,172,4,False,248.0,True,248.0,False,False,True
5,173,7,False,326.0,True,326.0,False,False,True
5,174,0,True,293.0,True,293.0,True,False,False
5,175,6,False,306.0,True,306.0,False,False,True
5,176,4,False,288.0,True,288.0,False,False,True
5,177,1,False,294.0,True,294.0,False,False,True
5,178,10,False,308.0,True,308.0,False,False,True
5,179,10,False,506.0,True,506.0,False,False,True
5,180,9,False,336.0,True,336.0,False,False,True
5,181,10,False,382.0,True,382.0,False,False,True
5,182,11,False,364.0,True,364.0,False,False,True
5,183,13,False,410.0,True,410.0,False,False,True
5,184,2,False,329.0,True,329.0,False,False,True
5,185,12,False,295.0,True,295.0,False,False,True
5,186,2,False,340.0,True,340.0,False,False,True
5,187,12,False,290.0,True,290.0,False,False,True
5,188,14,False,312.0,True,312.0,False,False,True
5,189,6,False,413.0,True,413.0,False,False,True
5,190,6,False,404.0,True,404.0,False,False,True
5,191,6,False,424.0,True,424.0,False,False,True
5,192,2,False,310.0,True,310.0,False,False,True
5,193,0,True,339.0,True,339.0,True,False,False
5,194,9,False,425.0,True,425.0,False,False,True
5,195,15,False,352.0,True,352.0,False,False,True
5,196,8,False,374.0,True,374.0,False,False,True
5,197,6,False,354.0,True,354.0,False,False,True
5,198,10,False,403.0,True,403.0,False,False,True
5,199,0,True,382.0,True,382.0,True,False,False
5,200,2,False,419.0,True,419.0,False,False,True
5,201,2,False,362.0,True,362.0,False,False,True
5,202,9,False,421.0,True,421.0,False,False,True
5,203,4,False,371.0,True,371.0,False,False,True
5,204,3,False,425.0,True,425.0,False,False,True
5,205,0,True,334.0,True,334.0,True,False,False
5,206,5,False,316.0,True,316.0,False,False,True
5,207,10,False,329.0,True,329.0,False,False,True
5,208,4,False,303.0,True,303.0,False,False,True
5,209,14,False,294.0,True,294.0,False,False,True
5,210,1,False,292.0,True,292.0,False,False,True
5,211,0,True,666.0,True,666.0,True,False,False
5,212,3,False,408.0,True,408.0,False,False,True
5,213,14,False,357.0,True,357.0,False,False,True
5,214,5,False,351.0,True,351.0,False,False,True
5,215,12,False,309.0,True,309.0,False,False,True
5,216,1,False,355.0,True,355.0,False,False,True
5,217,1,False,321.0,True,321.0,False,False,True
5,218,1,False,359.0,True,359.0,False,False,True
5,219,11,False,587.0,True,587.0,False,False,True
5,220,10,False,347.0,True,347.0,False,False,True
5,221,3,False,305.0,True,305.0,False,False,True
5,222,0,True,-1.0,False,,False,False,True
5,223,0,True,335.0,True,335.0,True,False,False
5,224,7,False,573.0,True,573.0,False,False,True
5,225,13,False,338.0,True,338.0,False,False,True
5,226,12,False,313.0,True,313.0,False,False,True
5,227,1,False,279.0,True,279.0,False,False,True
5,228,6,False,293.0,True,293.0,False,False,True
5,229,7,False,290.0,True,290.0,False,False,True
5,230,4,False,264.0,True,264.0,False,False,True
5,231,6,False,231.0,True,231.0,False,False,True
5,232,7,False,93.0,True,93.0,False,False,True
5,233,6,False,355.0,True,355.0,False,False,True
5,234,4,False,320.0,True,320.0,False,False,True
5,235,15,False,438.0,True,438.0,False,False,True
5,236,1,False,333.0,True,333.0,False,False,True
5,237,2,False,258.0,True,258.0,False,False,True
5,238,13,False,263.0,True,263.0,False,False,True
5,239,12,False,295.0,True,295.0,False,False,True
5,240,12,False,356.0,True,356.0,False,False,True
5,241,9,False,315.0,True,315.0,False,False,True
5,242,7,False,424.0,True,424.0,False,False,True
5,243,2,False,359.0,True,359.0,False,False,True
5,244,13,False,348.0,True,348.0,False,False,True
5,245,0,True,401.0,True,401.0,True,False,False
5,246,8,False,551.0,True,551.0,False,False,True
5,247,13,False,614.0,True,614.0,False,False,True
5,248,0,True,316.0,True,316.0,True,False,False
5,249,4,False,354.0,True,354.0,False,False,True
5,250,11,False,240.0,True,240.0,False,False,True
5,251,3,False,-1.0,False,,False,True,False
5,252,5,False,300.0,True,300.0,False,False,True
5,253,10,False,306.0,True,306.0,False,False,True
5,254,7,False,303.0,True,303.0,False,False,True
5,255,6,False,486.0,True,486.0,False,False,True
5,256,8,False,284.0,True,284.0,False,False,True
5,257,2,False,370.0,True,370.0,False,False,True
5,258,2,False,312.0,True,312.0,False,False,True
5,259,9,False,133.0,True,133.0,False,False,True
5,260,14,False,347.0,True,347.0,False,False,True
5,261,5,False,338.0,True,338.0,False,False,True
5,262,11,False,480.0,True,480.0,False,False,True
5,263,11,False,278.0,True,278.0,False,False,True
5,264,10,False,260.0,True,260.0,False,False,True
5,265,10,False,218.0,True,218.0,False,False,True
5,266,15,False,192.0,True,192.0,False,False,True
5,267,14,False,174.0,True,174.0,False,False,True
5,268,15,False,91.0,True,91.0,False,False,True
5,269,12,False,98.0,True,98.0,False,False,True
5,270,8,False,63.0,True,63.0,False,False,True
5,271,12,False,101.0,True,101.0,False,False,True
5,272,1,False,187.0,True,187.0,False,False,True
5,273,2,False,184.0,True,184.0,False,False,True
5,274,4,False,248.0,True,248.0,False,False,True
5,275,13,False,246.0,True,246.0,False,False,True
5,276,12,False,291.0,True,291.0,False,False,True
5,277,0,True,335.0,True,335.0,True,False,False
5,278,0,True,277.0,True,277.0,True,False,False
5,279,6,False,324.0,True,324.0,False,False,True
5,280,4,False,409.0,True,409.0,False,False,True
5,281,14,False,423.0,True,423.0,False,False,True
5,282,4,False,427.0,True,427.0,False,False,True
5,283,13,False,456.0,True,456.0,False,False,True
5,284,12,False,559.0,True,559.0,False,False,True
5,285,1,False,470.0,True,470.0,False,False,True
5,286,7,False,347.0,True,347.0,False,False,True
5,287,11,False,296.0,True,296.0,False,False,True
5,288,12,False,-1.0,False,,False,True,False
5,289,6,False,406.0,True,406.0,False,False,True
5,290,10,False,437.0,True,437.0,False,False,True
5,291,11,False,-1.0,False,,False,True,False
5,292,4,False,3411.0,True,3411.0,False,False,True
5,293,14,False,-1.0,False,,False,True,False
5,294,8,False,-1.0,False,,False,True,False
5,295,3,False,313.0,True,313.0,False,False,True
5,296,1,False,294.0,True,294.0,False,False,True
5,297,0,True,300.0,True,300.0,True,False,False
5,298,0,True,627.0,True,627.0,True,False,False
5,299,14,False,609.0,True,609.0,False,False,True
5,300,12,False,391.0,True,391.0,False,False,True
5,301,0,True,740.0,True,740.0,True,False,False
5,302,3,False,450.0,True,450.0,False,False,True
5,303,5,False,360.0,True,360.0,False,False,True
5,304,2,False,333.0,True,333.0,False,False,True
5,305,15,False,300.0,True,300.0,False,False,True
5,306,15,False,-1.0,False,,False,True,False
5,307,14,False,354.0,True,354.0,False,False,True
5,308,1,False,295.0,True,295.0,False,False,True
5,309,6,False,694.0,True,694.0,False,False,True
5,310,4,False,323.0,True,323.0,False,False,True
5,311,13,False,473.0,True,473.0,False,False,True
5,312,7,False,375.0,True,375.0,False,False,True
5,313,2,False,486.0,True,486.0,False,False,True
5,314,12,False,347.0,True,347.0,False,False,True
5,315,0,True,-1.0,False,,False,False,True
5,316,9,False,314.0,True,314.0,False,False,True
5,317,6,False,327.0,True,327.0,False,False,True
5,318,4,False,613.0,True,613.0,False,False,True
5,319,1,False,7.0,True,7.0,False,False,True
5,320,8,False,274.0,True,274.0,False,False,True
5,321,5,False,352.0,True,352.0,False,False,True
5,322,15,False,348.0,True,348.0,False,False,True
5,323,9,False,268.0,True,268.0,False,False,True
5,324,9,False,289.0,True,289.0,False,False,True
5,325,3,False,231.0,True,231.0,False,False,True
5,326,15,False,173.0,True,173.0,False,False,True
5,327,2,False,138.0,True,138.0,False,False,True
5,328,15,False,25.0,True,25.0,False,False,True
5,329,11,False,231.0,True,231.0,False,False,True
5,330,5,False,277.0,True,277.0,False,False,True
5,331,9,False,219.0,True,219.0,False,False,True
5,332,9,False,240.0,True,240.0,False,False,True
5,333,13,False,288.0,True,288.0,False,False,True
5,334,0,True,277.0,True,277.0,True,False,False
5,335,0,True,731.0,True,731.0,True,False,False
5,336,6,False,-1.0,False,,False,True,False
5,337,8,False,169.0,True,169.0,False,False,True
5,338,11,False,246.0,True,246.0,False,False,True
5,339,1,False,205.0,True,205.0,False,False,True
5,340,11,False,219.0,True,219.0,False,False,True
5,341,7,False,129.0,True,129.0,False,False,True
5,342,7,False,388.0,True,388.0,False,False,True
5,343,6,False,275.0,True,275.0,False,False,True
5,344,6,False,449.0,True,449.0,False,False,True
5,345,0,True,335.0,True,335.0,True,False,False
5,346,11,False,509.0,True,509.0,False,False,True
5,347,12,False,274.0,True,274.0,False,False,True
5,348,3,False,-1.0,False,,False,True,False
5,349,15,False,425.0,True,425.0,False,False,True
5,350,7,False,351.0,True,351.0,False,False,True
5,351,5,False,332.0,True,332.0,False,False,True
5,352,15,False,330.0,True,330.0,False,False,True
5,353,7,False,600.0,True,600.0,False,False,True
5,354,10,False,479.0,True,479.0,False,False,True
5,355,0,True,379.0,True,379.0,True,False,False
5,356,15,False,561.0,True,561.0,False,False,True
5,357,5,False,383.0,True,383.0,False,False,True
5,358,2,False,476.0,True,476.0,False,False,True
5,359,14,False,298.0,True,298.0,False,False,True
5,360,9,False,344.0,True,344.0,False,False,True
7,1,11,False,841.0,True,841.0,False,False,True
7,2,7,False,-1.0,False,,False,True,False
7,3,5,False,280.0,True,280.0,False,False,True
7,4,13,False,311.0,True,311.0,False,False,True
7,5,2,False,302.0,True,302.0,False,False,True
7,6,0,True,302.0,True,302.0,True,False,False
7,7,3,False,402.0,True,402.0,False,False,True
7,8,15,False,850.0,True,850.0,False,False,True
7,9,13,False,465.0,True,465.0,False,False,True
7,10,3,False,465.0,True,465.0,False,False,True
7,11,3,False,317.0,True,317.0,False,False,True
7,12,15,False,516.0,True,516.0,False,False,True
7,13,1,False,408.0,True,408.0,False,False,True
7,14,15,False,310.0,True,310.0,False,False,True
7,15,0,True,-1.0,False,,False,False,True
7,16,6,False,243.0,True,243.0,False,False,True
7,17,12,False,293.0,True,293.0,False,False,True
7,18,2,False,322.0,True,322.0,False,False,True
7,19,11,False,323.0,True,323.0,False,False,True
7,20,1,False,315.0,True,315.0,False,False,True
7,21,8,False,326.0,True,326.0,False,False,True
7,22,8,False,397.0,True,397.0,False,False,True
7,23,10,False,430.0,True,430.0,False,False,True
7,24,0,True,305.0,True,305.0,True,False,False
7,25,14,False,512.0,True,512.0,False,False,True
7,26,7,False,328.0,True,328.0,False,False,True
7,27,2,False,307.0,True,307.0,False,False,True
7,28,3,False,251.0,True,251.0,False,False,True
7,29,11,False,390.0,True,390.0,False,False,True
7,30,1,False,361.0,True,361.0,False,False,True
7,31,4,False,334.0,True,334.0,False,False,True
7,32,13,False,375.0,True,375.0,False,False,True
7,33,9,False,436.0,True,436.0,False,False,True
7,34,0,True,-1.0,False,,False,False,True
7,35,2,False,281.0,True,281.0,False,False,True
7,36,11,False,322.0,True,322.0,False,False,True
7,37,14,False,384.0,True,384.0,False,False,True
7,38,15,False,327.0,True,327.0,False,False,True
7,39,14,False,498.0,True,498.0,False,False,True
7,40,4,False,349.0,True,349.0,False,False,True
7,41,10,False,321.0,True,321.0,False,False,True
7,42,0,True,294.0,True,294.0,True,False,False
7,43,3,False,537.0,True,537.0,False,False,True
7,44,4,False,319.0,True,319.0,False,False,True
7,45,14,False,312.0,True,312.0,False,False,True
7,46,14,False,373.0,True,373.0,False,False,True
7,47,1,False,397.0,True,397.0,False,False,True
7,48,14,False,404.0,True,404.0,False,False,True
7,49,4,False,418.0,True,418.0,False,False,True
7,50,4,False,361.0,True,361.0,False,False,True
7,51,6,False,503.0,True,503.0,False,False,True
7,52,14,False,360.0,True,360.0,False,False,True
7,53,0,True,-1.0,False,,False,False,True
7,54,3,False,366.0,True,366.0,False,False,True
7,55,12,False,408.0,True,408.0,False,False,True
7,56,15,False,382.0,True,382.0,False,False,True
7,57,14,False,543.0,True,543.0,False,False,True
7,58,5,False,477.0,True,477.0,False,False,True
7,59,2,False,538.0,True,538.0,False,False,True
7,60,15,False,692.0,True,692.0,False,False,True
7,61,3,False,437.0,True,437.0,False,False,True
7,62,5,False,458.0,True,458.0,False,False,True
7,63,5,False,440.0,True,440.0,False,False,True
7,64,15,False,353.0,True,353.0,False,False,True
7,65,5,False,423.0,True,423.0,False,False,True
7,66,13,False,425.0,True,425.0,False,False,True
7,67,1,False,377.0,True,377.0,False,False,True
7,68,9,False,378.0,True,378.0,False,False,True
7,69,6,False,449.0,True,449.0,False,False,True
7,70,15,False,351.0,True,351.0,False,False,True
7,71,0,True,-1.0,False,,False,False,True
7,72,3,False,306.0,True,306.0,False,False,True
7,73,13,False,336.0,True,336.0,False,False,True
7,74,9,False,606.0,True,606.0,False,False,True
7,75,0,True,-1.0,False,,False,False,True
7,76,3,False,312.0,True,312.0,False,False,True
7,77,3,False,443.0,True,443.0,False,False,True
7,78,3,False,413.0,True,413.0,False,False,True
7,79,12,False,476.0,True,476.0,False,False,True
7,80,6,False,438.0,True,438.0,False,False,True
7,81,6,False,378.0,True,378.0,False,False,True
7,82,0,True,-1.0,False,,False,False,True
7,83,14,False,266.0,True,266.0,False,False,True
7,84,15,False,329.0,True,329.0,False,False,True
7,85,11,False,421.0,True,421.0,False,False,True
7,86,5,False,295.0,True,295.0,False,False,True
7,87,5,False,348.0,True,348.0,False,False,True
7,88,12,False,451.0,True,451.0,False,False,True
7,89,15,False,324.0,True,324.0,False,False,True
7,90,14,False,377.0,True,377.0,False,False,True
7,91,5,False,390.0,True,390.0,False,False,True
7,92,7,False,493.0,True,493.0,False,False,True
7,93,15,False,394.0,True,394.0,False,False,True
7,94,3,False,380.0,True,380.0,False,False,True
7,95,8,False,383.0,True,383.0,False,False,True
7,96,12,False,385.0,True,385.0,False,False,True
7,97,4,False,528.0,True,528.0,False,False,True
7,98,10,False,483.0,True,483.0,False,False,True
7,99,0,True,-1.0,False,,False,False,True
7,100,2,False,294.0,True,294.0,False,False,True
7,101,0,True,-1.0,False,,False,False,True
7,102,12,False,438.0,True,438.0,False,False,True
7,103,1,False,279.0,True,279.0,False,False,True
7,104,3,False,260.0,True,260.0,False,False,True
7,105,14,False,468.0,True,468.0,False,False,True
7,106,7,False,391.0,True,391.0,False,False,True
7,107,10,False,383.0,True,383.0,False,False,True
7,108,5,False,344.0,True,344.0,False,False,True
7,109,10,False,334.0,True,334.0,False,False,True
7,110,1,False,443.0,True,443.0,False,False,True
7,111,13,False,326.0,True,326.0,False,False,True
7,112,3,False,379.0,True,379.0,False,False,True
7,113,8,False,408.0,True,408.0,False,False,True
7,114,15,False,489.0,True,489.0,False,False,True
7,115,12,False,389.0,True,389.0,False,False,True
7,116,1,False,420.0,True,420.0,False,False,True
7,117,4,False,333.0,True,333.0,False,False,True
7,118,14,False,353.0,True,353.0,False,False,True
7,119,0,True,-1.0,False,,False,False,True
7,120,12,False,244.0,True,244.0,False,False,True
7,121,0,True,256.0,True,256.0,True,False,False
7,122,2,False,441.0,True,441.0,False,False,True
7,123,1,False,365.0,True,365.0,False,False,True
7,124,4,False,360.0,True,360.0,False,False,True
7,125,7,False,331.0,True,331.0,False,False,True
7,126,3,False,375.0,True,375.0,False,False,True
7,127,4,False,359.0,True,359.0,False,False,True
7,128,13,False,332.0,True,332.0,False,False,True
7,129,0,True,374.0,True,374.0,True,False,False
7,130,9,False,370.0,True,370.0,False,False,True
7,131,13,False,364.0,True,364.0,False,False,True
7,132,9,False,387.0,True,387.0,False,False,True
7,133,3,False,334.0,True,334.0,False,False,True
7,134,9,False,475.0,True,475.0,False,False,True
7,135,11,False,588.0,True,588.0,False,False,True
7,136,3,False,314.0,True,314.0,False,False,True
7,137,14,False,318.0,True,318.0,False,False,True
7,138,6,False,428.0,True,428.0,False,False,True
7,139,11,False,374.0,True,374.0,False,False,True
7,140,9,False,406.0,True,406.0,False,False,True
7,141,14,False,358.0,True,358.0,False,False,True
7,142,4,False,401.0,True,401.0,False,False,True
7,143,2,False,352.0,True,352.0,False,False,True
7,144,5,False,266.0,True,266.0,False,False,True
7,145,2,False,692.0,True,692.0,False,False,True
7,146,3,False,422.0,True,422.0,False,False,True
7,147,9,False,358.0,True,358.0,False,False,True
7,148,0,True,-1.0,False,,False,False,True
7,149,14,False,274.0,True,274.0,False,False,True
7,150,2,False,343.0,True,343.0,False,False,True
7,151,3,False,452.0,True,452.0,False,False,True
7,152,5,False,437.0,True,437.0,False,False,True
7,153,5,False,328.0,True,328.0,False,False,True
7,154,13,False,340.0,True,340.0,False,False,True
7,155,6,False,322.0,True,322.0,False,False,True
7,156,8,False,352.0,True,352.0,False,False,True
7,157,0,True,-1.0,False,,False,False,True
7,158,4,False,306.0,True,306.0,False,False,True
7,159,11,False,337.0,True,337.0,False,False,True
7,160,15,False,359.0,True,359.0,False,False,True
7,161,6,False,371.0,True,371.0,False,False,True
7,162,15,False,589.0,True,589.0,False,False,True
7,163,6,False,531.0,True,531.0,False,False,True
7,164,3,False,373.0,True,373.0,False,False,True
7,165,14,False,493.0,True,493.0,False,False,True
7,166,10,False,434.0,True,434.0,False,False,True
7,167,12,False,386.0,True,386.0,False,False,True
7,168,10,False,428.0,True,428.0,False,False,True
7,169,13,False,407.0,True,407.0,False,False,True
7,170,6,False,409.0,True,409.0,False,False,True
7,171,0,True,-1.0,False,,False,False,True
7,172,13,False,261.0,True,261.0,False,False,True
7,173,9,False,311.0,True,311.0,False,False,True
7,174,8,False,332.0,True,332.0,False,False,True
7,175,1,False,392.0,True,392.0,False,False,True
7,176,6,False,304.0,True,304.0,False,False,True
7,177,14,False,452.0,True,452.0,False,False,True
7,178,5,False,414.0,True,414.0,False,False,True
7,179,0,True,-1.0,False,,False,False,True
7,180,13,False,269.0,True,269.0,False,False,True
7,181,13,False,298.0,True,298.0,False,False,True
7,182,2,False,368.0,True,368.0,False,False,True
7,183,8,False,368.0,True,368.0,False,False,True
7,184,15,False,331.0,True,331.0,False,False,True
7,185,10,False,362.0,True,362.0,False,False,True
7,186,1,False,341.0,True,341.0,False,False,True
7,187,4,False,284.0,True,284.0,False,False,True
7,188,5,False,433.0,True,433.0,False,False,True
7,189,5,False,286.0,True,286.0,False,False,True
7,190,11,False,257.0,True,257.0,False,False,True
7,191,15,False,634.0,True,634.0,False,False,True
7,192,15,False,318.0,True,318.0,False,False,True
7,193,0,True,358.0,True,358.0,True,False,False
7,194,2,False,428.0,True,428.0,False,False,True
7,195,11,False,283.0,True,283.0,False,False,True
7,196,0,True,292.0,True,292.0,True,False,False
7,197,9,False,273.0,True,273.0,False,False,True
7,198,12,False,305.0,True,305.0,False,False,True
7,199,6,False,266.0,True,266.0,False,False,True
7,200,6,False,306.0,True,306.0,False,False,True
7,201,0,True,-1.0,False,,False,False,True
7,202,0,True,-1.0,False,,False,False,True
7,203,3,False,412.0,True,412.0,False,False,True
7,204,13,False,357.0,True,357.0,False,False,True
7,205,11,False,348.0,True,348.0,False,False,True
7,206,2,False,397.0,True,397.0,False,False,True
7,207,14,False,498.0,True,498.0,False,False,True
7,208,8,False,285.0,True,285.0,False,False,True
7,209,4,False,357.0,True,357.0,False,False,True
7,210,15,False,409.0,True,409.0,False,False,True
7,211,3,False,392.0,True,392.0,False,False,True
7,212,12,False,504.0,True,504.0,False,False,True
7,213,12,False,348.0,True,348.0,False,False,True
7,214,1,False,337.0,True,337.0,False,False,True
7,215,11,False,369.0,True,369.0,False,False,True
7,216,5,False,451.0,True,451.0,False,False,True
7,217,13,False,336.0,True,336.0,False,False,True
7,218,12,False,339.0,True,339.0,False,False,True
7,219,7,False,282.0,True,282.0,False,False,True
7,220,10,False,385.0,True,385.0,False,False,True
7,221,1,False,289.0,True,289.0,False,False,True
7,222,8,False,408.0,True,408.0,False,False,True
7,223,12,False,272.0,True,272.0,False,False,True
7,224,10,False,423.0,True,423.0,False,False,True
7,225,13,False,295.0,True,295.0,False,False,True
7,226,9,False,365.0,True,365.0,False,False,True
7,227,0,True,-1.0,False,,False,False,True
7,228,10,False,320.0,True,320.0,False,False,True
7,229,1,False,382.0,True,382.0,False,False,True
7,230,14,False,490.0,True,490.0,False,False,True
7,231,15,False,314.0,True,314.0,False,False,True
7,232,15,False,663.0,True,663.0,False,False,True
7,233,11,False,429.0,True,429.0,False,False,True
7,234,14,False,410.0,True,410.0,False,False,True
7,235,15,False,311.0,True,311.0,False,False,True
7,236,1,False,403.0,True,403.0,False,False,True
7,237,12,False,345.0,True,345.0,False,False,True
7,238,0,True,-1.0,False,,False,False,True
7,239,2,False,230.0,True,230.0,False,False,True
7,240,5,False,427.0,True,427.0,False,False,True
7,241,15,False,549.0,True,549.0,False,False,True
7,242,5,False,322.0,True,322.0,False,False,True
7,243,11,False,313.0,True,313.0,False,False,True
7,244,10,False,305.0,True,305.0,False,False,True
7,245,10,False,327.0,True,327.0,False,False,True
7,246,15,False,417.0,True,417.0,False,False,True
7,247,14,False,260.0,True,260.0,False,False,True
7,248,10,False,321.0,True,321.0,False,False,True
7,249,0,True,-1.0,False,,False,False,True
7,250,2,False,265.0,True,265.0,False,False,True
7,251,6,False,295.0,True,295.0,False,False,True
7,252,11,False,386.0,True,386.0,False,False,True
7,253,10,False,318.0,True,318.0,False,False,True
7,254,0,True,290.0,True,290.0,True,False,False
7,255,8,False,461.0,True,461.0,False,False,True
7,256,9,False,392.0,True,392.0,False,False,True
7,257,1,False,603.0,True,603.0,False,False,True
7,258,10,False,306.0,True,306.0,False,False,True
7,259,4,False,504.0,True,504.0,False,False,True
7,260,1,False,548.0,True,548.0,False,False,True
7,261,10,False,588.0,True,588.0,False,False,True
7,262,1,False,648.0,True,648.0,False,False,True
7,263,6,False,532.0,True,532.0,False,False,True
7,264,11,False,304.0,True,304.0,False,False,True
7,265,1,False,364.0,True,364.0,False,False,True
7,266,6,False,385.0,True,385.0,False,False,True
7,267,0,True,-1.0,False,,False,False,True
7,268,3,False,287.0,True,287.0,False,False,True
7,269,7,False,407.0,True,407.0,False,False,True
7,270,13,False,348.0,True,348.0,False,False,True
7,271,7,False,399.0,True,399.0,False,False,True
7,272,0,True,-1.0,False,,False,False,True
7,273,8,False,280.0,True,280.0,False,False,True
7,274,13,False,301.0,True,301.0,False,False,True
7,275,8,False,352.0,True,352.0,False,False,True
7,276,14,False,492.0,True,492.0,False,False,True
7,277,5,False,412.0,True,412.0,False,False,True
7,278,8,False,295.0,True,295.0,False,False,True
7,279,9,False,256.0,True,256.0,False,False,True
7,280,12,False,257.0,True,257.0,False,False,True
7,281,5,False,377.0,True,377.0,False,False,True
7,282,15,False,449.0,True,449.0,False,False,True
7,283,13,False,401.0,True,401.0,False,False,True
7,284,1,False,335.0,True,335.0,False,False,True
7,285,11,False,348.0,True,348.0,False,False,True
7,286,3,False,451.0,True,451.0,False,False,True
7,287,1,False,304.0,True,304.0,False,False,True
7,288,4,False,337.0,True,337.0,False,False,True
7,289,15,False,444.0,True,444.0,False,False,True
7,290,3,False,345.0,True,345.0,False,False,True
7,291,0,True,-1.0,False,,False,False,True
7,292,1,False,284.0,True,284.0,False,False,True
7,293,13,False,347.0,True,347.0,False,False,True
7,294,14,False,370.0,True,370.0,False,False,True
7,295,0,True,284.0,True,284.0,True,False,False
7,296,9,False,335.0,True,335.0,False,False,True
7,297,9,False,399.0,True,399.0,False,False,True
7,298,15,False,439.0,True,439.0,False,False,True
7,299,7,False,551.0,True,551.0,False,False,True
7,300,6,False,564.0,True,564.0,False,False,True
7,301,2,False,329.0,True,329.0,False,False,True
7,302,13,False,521.0,True,521.0,False,False,True
7,303,15,False,316.0,True,316.0,False,False,True
7,304,4,False,487.0,True,487.0,False,False,True
7,305,14,False,430.0,True,430.0,False,False,True
7,306,2,False,325.0,True,325.0,False,False,True
7,307,3,False,585.0,True,585.0,False,False,True
7,308,8,False,320.0,True,320.0,False,False,True
7,309,0,True,333.0,True,333.0,True,False,False
7,310,10,False,387.0,True,387.0,False,False,True
7,311,14,False,499.0,True,499.0,False,False,True
7,312,9,False,332.0,True,332.0,False,False,True
7,313,6,False,603.0,True,603.0,False,False,True
7,314,1,False,488.0,True,488.0,False,False,True
7,315,14,False,501.0,True,501.0,False,False,True
7,316,0,True,-1.0,False,,False,False,True
7,317,14,False,426.0,True,426.0,False,False,True
7,318,7,False,450.0,True,450.0,False,False,True
7,319,14,False,483.0,True,483.0,False,False,True
7,320,7,False,436.0,True,436.0,False,False,True
7,321,9,False,507.0,True,507.0,False,False,True
7,322,14,False,538.0,True,538.0,False,False,True
7,323,11,False,302.0,True,302.0,False,False,True
7,324,11,False,323.0,True,323.0,False,False,True
7,325,11,False,323.0,True,323.0,False,False,True
7,326,8,False,333.0,True,333.0,False,False,True
7,327,10,False,402.0,True,402.0,False,False,True
7,328,2,False,315.0,True,315.0,False,False,True
7,329,12,False,446.0,True,446.0,False,False,True
7,330,6,False,368.0,True,368.0,False,False,True
7,331,7,False,317.0,True,317.0,False,False,True
7,332,10,False,407.0,True,407.0,False,False,True
7,333,0,True,-1.0,False,,False,False,True
7,334,5,False,241.0,True,241.0,False,False,True
7,335,15,False,608.0,True,608.0,False,False,True
7,336,2,False,291.0,True,291.0,False,False,True
7,337,10,False,332.0,True,332.0,False,False,True
7,338,0,True,-1.0,False,,False,False,True
7,339,10,False,264.0,True,264.0,False,False,True
7,340,2,False,354.0,True,354.0,False,False,True
7,341,13,False,444.0,True,444.0,False,False,True
7,342,0,True,-1.0,False,,False,False,True
7,343,4,False,409.0,True,409.0,False,False,True
7,344,15,False,361.0,True,361.0,False,False,True
7,345,13,False,364.0,True,364.0,False,False,True
7,346,5,False,316.0,True,316.0,False,False,True
7,347,4,False,465.0,True,465.0,False,False,True
7,348,5,False,379.0,True,379.0,False,False,True
7,349,0,True,321.0,True,321.0,True,False,False
7,350,12,False,303.0,True,303.0,False,False,True
7,351,7,False,287.0,True,287.0,False,False,True
7,352,13,False,306.0,True,306.0,False,False,True
7,353,4,False,347.0,True,347.0,False,False,True
7,354,2,False,319.0,True,319.0,False,False,True
7,355,6,False,300.0,True,300.0,False,False,True
7,356,1,False,312.0,True,312.0,False,False,True
7,357,7,False,344.0,True,344.0,False,False,True
7,358,3,False,355.0,True,355.0,False,False,True
7,359,10,False,306.0,True,306.0,False,False,True
7,360,7,False,309.0,True,309.0,False,False,True
8,1,7,False,466.0,True,466.0,False,False,True
8,2,13,False,323.0,True,323.0,False,False,True
8,3,5,False,266.0,True,266.0,False,False,True
8,4,14,False,236.0,True,236.0,False,False,True
8,5,11,False,277.0,True,277.0,False,False,True
8,6,1,False,257.0,True,257.0,False,False,True
8,7,0,True,-1.0,False,,False,False,True
8,8,11,False,261.0,True,261.0,False,False,True
8,9,0,True,271.0,True,271.0,True,False,False
8,10,12,False,499.0,True,499.0,False,False,True
8,11,2,False,450.0,True,450.0,False,False,True
8,12,15,False,333.0,True,333.0,False,False,True
8,13,1,False,296.0,True,296.0,False,False,True
8,14,15,False,395.0,True,395.0,False,False,True
8,15,1,False,367.0,True,367.0,False,False,True
8,16,11,False,286.0,True,286.0,False,False,True
8,17,2,False,327.0,True,327.0,False,False,True
8,18,5,False,427.0,True,427.0,False,False,True
8,19,14,False,281.0,True,281.0,False,False,True
8,20,14,False,261.0,True,261.0,False,False,True
8,21,12,False,253.0,True,253.0,False,False,True
8,22,7,False,440.0,True,440.0,False,False,True
8,23,6,False,365.0,True,365.0,False,False,True
8,24,1,False,277.0,True,277.0,False,False,True
8,25,2,False,279.0,True,279.0,False,False,True
8,26,15,False,330.0,True,330.0,False,False,True
8,27,2,False,262.0,True,262.0,False,False,True
8,28,0,True,283.0,True,283.0,True,False,False
8,29,0,True,294.0,True,294.0,True,False,False
8,30,2,False,326.0,True,326.0,False,False,True
8,31,14,False,566.0,True,566.0,False,False,True
8,32,9,False,310.0,True,310.0,False,False,True
8,33,8,False,262.0,True,262.0,False,False,True
8,34,14,False,501.0,True,501.0,False,False,True
8,35,3,False,284.0,True,284.0,False,False,True
8,36,4,False,297.0,True,297.0,False,False,True
8,37,15,False,276.0,True,276.0,False,False,True
8,38,2,False,240.0,True,240.0,False,False,True
8,39,9,False,290.0,True,290.0,False,False,True
8,40,15,False,241.0,True,241.0,False,False,True
8,41,2,False,283.0,True,283.0,False,False,True
8,42,3,False,335.0,True,335.0,False,False,True
8,43,1,False,388.0,True,388.0,False,False,True
8,44,15,False,393.0,True,393.0,False,False,True
8,45,0,True,414.0,True,414.0,True,False,False
8,46,3,False,516.0,True,516.0,False,False,True
8,47,15,False,-1.0,False,,False,True,False
8,48,4,False,374.0,True,374.0,False,False,True
8,49,2,False,357.0,True,357.0,False,False,True
8,50,6,False,322.0,True,322.0,False,False,True
8,51,13,False,372.0,True,372.0,False,False,True
8,52,0,True,-1.0,False,,False,False,True
8,53,13,False,529.0,True,529.0,False,False,True
8,54,5,False,573.0,True,573.0,False,False,True
8,55,5,False,453.0,True,453.0,False,False,True
8,56,10,False,348.0,True,348.0,False,False,True
8,57,8,False,353.0,True,353.0,False,False,True
8,58,13,False,386.0,True,386.0,False,False,True
8,59,11,False,438.0,True,438.0,False,False,True
8,60,10,False,520.0,True,520.0,False,False,True
8,61,8,False,316.0,True,316.0,False,False,True
8,62,9,False,386.0,True,386.0,False,False,True
8,63,14,False,934.0,True,934.0,False,False,True
8,64,12,False,589.0,True,589.0,False,False,True
8,65,7,False,441.0,True,441.0,False,False,True
8,66,6,False,522.0,True,522.0,False,False,True
8,67,0,True,315.0,True,315.0,True,False,False
8,68,10,False,325.0,True,325.0,False,False,True
8,69,2,False,240.0,True,240.0,False,False,True
8,70,11,False,262.0,True,262.0,False,False,True
8,71,10,False,293.0,True,293.0,False,False,True
8,72,3,False,215.0,True,215.0,False,False,True
8,73,0,True,246.0,True,246.0,True,False,False
8,74,13,False,526.0,True,526.0,False,False,True
8,75,7,False,290.0,True,290.0,False,False,True
8,76,15,False,273.0,True,273.0,False,False,True
8,77,9,False,264.0,True,264.0,False,False,True
8,78,12,False,266.0,True,266.0,False,False,True
8,79,7,False,260.0,True,260.0,False,False,True
8,80,8,False,388.0,True,388.0,False,False,True
8,81,11,False,408.0,True,408.0,False,False,True
8,82,12,False,294.0,True,294.0,False,False,True
8,83,13,False,416.0,True,416.0,False,False,True
8,84,2,False,388.0,True,388.0,False,False,True
8,85,6,False,380.0,True,380.0,False,False,True
8,86,14,False,434.0,True,434.0,False,False,True
8,87,6,False,319.0,True,319.0,False,False,True
8,88,15,False,351.0,True,351.0,False,False,True
8,89,3,False,354.0,True,354.0,False,False,True
8,90,4,False,321.0,True,321.0,False,False,True
8,91,1,False,469.0,True,469.0,False,False,True
8,92,15,False,402.0,True,402.0,False,False,True
8,93,0,True,376.0,True,376.0,True,False,False
8,94,11,False,310.0,True,310.0,False,False,True
8,95,13,False,324.0,True,324.0,False,False,True
8,96,0,True,266.0,True,266.0,True,False,False
8,97,3,False,407.0,True,407.0,False,False,True
8,98,15,False,410.0,True,410.0,False,False,True
8,99,12,False,472.0,True,472.0,False,False,True
8,100,8,False,397.0,True,397.0,False,False,True
8,101,15,False,470.0,True,470.0,False,False,True
8,102,0,True,371.0,True,371.0,True,False,False
8,103,9,False,571.0,True,571.0,False,False,True
8,104,3,False,302.0,True,302.0,False,False,True
8,105,12,False,254.0,True,254.0,False,False,True
8,106,1,False,265.0,True,265.0,False,False,True
8,107,0,True,325.0,True,325.0,True,False,False
8,108,13,False,435.0,True,435.0,False,False,True
8,109,3,False,276.0,True,276.0,False,False,True
8,110,11,False,545.0,True,545.0,False,False,True
8,111,11,False,250.0,True,250.0,False,False,True
8,112,7,False,319.0,True,319.0,False,False,True
8,113,10,False,282.0,True,282.0,False,False,True
8,114,9,False,401.0,True,401.0,False,False,True
8,115,4,False,233.0,True,233.0,False,False,True
8,116,7,False,293.0,True,293.0,False,False,True
8,117,15,False,324.0,True,324.0,False,False,True
8,118,11,False,464.0,True,464.0,False,False,True
8,119,12,False,357.0,True,357.0,False,False,True
8,120,3,False,435.0,True,435.0,False,False,True
8,121,4,False,277.0,True,277.0,False,False,True
8,122,7,False,350.0,True,350.0,False,False,True
8,123,0,True,473.0,True,473.0,True,False,False
8,124,1,False,415.0,True,415.0,False,False,True
8,125,14,False,349.0,True,349.0,False,False,True
8,126,1,False,451.0,True,451.0,False,False,True
8,127,13,False,424.0,True,424.0,False,False,True
8,128,10,False,378.0,True,378.0,False,False,True
8,129,9,False,340.0,True,340.0,False,False,True
8,130,11,False,502.0,True,502.0,False,False,True
8,131,10,False,627.0,True,627.0,False,False,True
8,132,1,False,344.0,True,344.0,False,False,True
8,133,15,False,356.0,True,356.0,False,False,True
8,134,15,False,319.0,True,319.0,False,False,True
8,135,10,False,700.0,True,700.0,False,False,True
8,136,15,False,355.0,True,355.0,False,False,True
8,137,10,False,398.0,True,398.0,False,False,True
8,138,0,True,283.0,True,283.0,True,False,False
8,139,12,False,265.0,True,265.0,False,False,True
8,140,1,False,240.0,True,240.0,False,False,True
8,141,10,False,272.0,True,272.0,False,False,True
8,142,2,False,294.0,True,294.0,False,False,True
8,143,2,False,323.0,True,323.0,False,False,True
8,144,5,False,238.0,True,238.0,False,False,True
8,145,12,False,278.0,True,278.0,False,False,True
8,146,6,False,290.0,True,290.0,False,False,True
8,147,0,True,282.0,True,282.0,True,False,False
8,148,12,False,342.0,True,342.0,False,False,True
8,149,9,False,323.0,True,323.0,False,False,True
8,150,10,False,286.0,True,286.0,False,False,True
8,151,8,False,317.0,True,317.0,False,False,True
8,152,13,False,268.0,True,268.0,False,False,True
8,153,13,False,409.0,True,409.0,False,False,True
8,154,13,False,273.0,True,273.0,False,False,True
8,155,6,False,502.0,True,502.0,False,False,True
8,156,3,False,275.0,True,275.0,False,False,True
8,157,4,False,238.0,True,238.0,False,False,True
8,158,5,False,268.0,True,268.0,False,False,True
8,159,7,False,339.0,True,339.0,False,False,True
8,160,0,True,263.0,True,263.0,True,False,False
8,161,5,False,411.0,True,411.0,False,False,True
8,162,9,False,343.0,True,343.0,False,False,True
8,163,6,False,248.0,True,248.0,False,False,True
8,164,11,False,257.0,True,257.0,False,False,True
8,165,14,False,644.0,True,644.0,False,False,True
8,166,6,False,287.0,True,287.0,False,False,True
8,167,10,False,259.0,True,259.0,False,False,True
8,168,11,False,270.0,True,270.0,False,False,True
8,169,4,False,252.0,True,252.0,False,False,True
8,170,2,False,351.0,True,351.0,False,False,True
8,171,1,False,262.0,True,262.0,False,False,True
8,172,1,False,272.0,True,272.0,False,False,True
8,173,1,False,243.0,True,243.0,False,False,True
8,174,0,True,-1.0,False,,False,False,True
8,175,11,False,-1.0,False,,False,True,False
8,176,0,True,256.0,True,256.0,True,False,False
8,177,1,False,255.0,True,255.0,False,False,True
8,178,2,False,356.0,True,356.0,False,False,True
8,179,14,False,328.0,True,328.0,False,False,True
8,180,6,False,269.0,True,269.0,False,False,True
8,181,8,False,260.0,True,260.0,False,False,True
8,182,8,False,251.0,True,251.0,False,False,True
8,183,6,False,272.0,True,272.0,False,False,True
8,184,4,False,233.0,True,233.0,False,False,True
8,185,6,False,362.0,True,362.0,False,False,True
8,186,0,True,-1.0,False,,False,False,True
8,187,1,False,263.0,True,263.0,False,False,True
8,188,4,False,256.0,True,256.0,False,False,True
8,189,15,False,255.0,True,255.0,False,False,True
8,190,15,False,238.0,True,238.0,False,False,True
8,191,4,False,317.0,True,317.0,False,False,True
8,192,9,False,287.0,True,287.0,False,False,True
8,193,1,False,269.0,True,269.0,False,False,True
8,194,8,False,329.0,True,329.0,False,False,True
8,195,13,False,272.0,True,272.0,False,False,True
8,196,4,False,252.0,True,252.0,False,False,True
8,197,7,False,392.0,True,392.0,False,False,True
8,198,0,True,252.0,True,252.0,True,False,False
8,199,11,False,293.0,True,293.0,False,False,True
8,200,8,False,255.0,True,255.0,False,False,True
8,201,4,False,237.0,True,237.0,False,False,True
8,202,8,False,447.0,True,447.0,False,False,True
8,203,10,False,419.0,True,419.0,False,False,True
8,204,3,False,444.0,True,444.0,False,False,True
8,205,10,False,376.0,True,376.0,False,False,True
8,206,3,False,419.0,True,419.0,False,False,True
8,207,0,True,371.0,True,371.0,True,False,False
8,208,1,False,514.0,True,514.0,False,False,True
8,209,6,False,358.0,True,358.0,False,False,True
8,210,11,False,411.0,True,411.0,False,False,True
8,211,14,False,384.0,True,384.0,False,False,True
8,212,2,False,347.0,True,347.0,False,False,True
8,213,12,False,371.0,True,371.0,False,False,True
8,214,5,False,569.0,True,569.0,False,False,True
8,215,6,False,404.0,True,404.0,False,False,True
8,216,7,False,398.0,True,398.0,False,False,True
8,217,0,True,422.0,True,422.0,True,False,False
8,218,12,False,455.0,True,455.0,False,False,True
8,219,3,False,329.0,True,329.0,False,False,True
8,220,1,False,451.0,True,451.0,False,False,True
8,221,11,False,346.0,True,346.0,False,False,True
8,222,6,False,289.0,True,289.0,False,False,True
8,223,1,False,280.0,True,280.0,False,False,True
8,224,3,False,430.0,True,430.0,False,False,True
8,225,0,True,-1.0,False,,False,False,True
8,226,13,False,325.0,True,325.0,False,False,True
8,227,12,False,405.0,True,405.0,False,False,True
8,228,7,False,327.0,True,327.0,False,False,True
8,229,7,False,479.0,True,479.0,False,False,True
8,230,10,False,459.0,True,459.0,False,False,True
8,231,0,True,313.0,True,313.0,True,False,False
8,232,6,False,264.0,True,264.0,False,False,True
8,233,10,False,286.0,True,286.0,False,False,True
8,234,3,False,336.0,True,336.0,False,False,True
8,235,3,False,308.0,True,308.0,False,False,True
8,236,5,False,350.0,True,350.0,False,False,True
8,237,4,False,372.0,True,372.0,False,False,True
8,238,3,False,303.0,True,303.0,False,False,True
8,239,15,False,318.0,True,318.0,False,False,True
8,240,6,False,355.0,True,355.0,False,False,True
8,241,13,False,328.0,True,328.0,False,False,True
8,242,11,False,378.0,True,378.0,False,False,True
8,243,10,False,399.0,True,399.0,False,False,True
8,244,5,False,371.0,True,371.0,False,False,True
8,245,6,False,471.0,True,471.0,False,False,True
8,246,13,False,255.0,True,255.0,False,False,True
8,247,8,False,227.0,True,227.0,False,False,True
8,248,4,False,227.0,True,227.0,False,False,True
8,249,1,False,330.0,True,330.0,False,False,True
8,250,9,False,301.0,True,301.0,False,False,True
8,251,4,False,223.0,True,223.0,False,False,True
8,252,7,False,226.0,True,226.0,False,False,True
8,253,11,False,10.0,True,10.0,False,False,True
8,254,13,False,317.0,True,317.0,False,False,True
8,255,8,False,340.0,True,340.0,False,False,True
8,256,0,True,320.0,True,320.0,True,False,False
8,257,12,False,302.0,True,302.0,False,False,True
8,258,10,False,235.0,True,235.0,False,False,True
8,259,0,True,286.0,True,286.0,True,False,False
8,260,11,False,288.0,True,288.0,False,False,True
8,261,13,False,428.0,True,428.0,False,False,True
8,262,9,False,368.0,True,368.0,False,False,True
8,263,8,False,261.0,True,261.0,False,False,True
8,264,0,True,262.0,True,262.0,True,False,False
8,265,6,False,244.0,True,244.0,False,False,True
8,266,11,False,242.0,True,242.0,False,False,True
8,267,7,False,233.0,True,233.0,False,False,True
8,268,8,False,274.0,True,274.0,False,False,True
8,269,9,False,217.0,True,217.0,False,False,True
8,270,1,False,345.0,True,345.0,False,False,True
8,271,2,False,297.0,True,297.0,False,False,True
8,272,5,False,317.0,True,317.0,False,False,True
8,273,10,False,288.0,True,288.0,False,False,True
8,274,11,False,894.0,True,894.0,False,False,True
8,275,7,False,-1.0,False,,False,True,False
8,276,5,False,192.0,True,192.0,False,False,True
8,277,0,True,102.0,True,102.0,True,False,False
8,278,10,False,222.0,True,222.0,False,False,True
8,279,13,False,35.0,True,35.0,False,False,True
8,280,2,False,373.0,True,373.0,False,False,True
8,281,7,False,196.0,True,196.0,False,False,True
8,282,3,False,288.0,True,288.0,False,False,True
8,283,3,False,-1.0,False,,False,True,False
8,284,10,False,322.0,True,322.0,False,False,True
8,285,0,True,406.0,True,406.0,True,False,False
8,286,9,False,488.0,True,488.0,False,False,True
8,287,12,False,273.0,True,273.0,False,False,True
8,288,9,False,305.0,True,305.0,False,False,True
8,289,11,False,279.0,True,279.0,False,False,True
8,290,10,False,341.0,True,341.0,False,False,True
8,291,13,False,393.0,True,393.0,False,False,True
8,292,12,False,356.0,True,356.0,False,False,True
8,293,1,False,359.0,True,359.0,False,False,True
8,294,13,False,332.0,True,332.0,False,False,True
8,295,0,True,316.0,True,316.0,True,False,False
